aX,aY,aZ,gX,gY,gZ
-0.154,0.042,0.967,2.075,-3.662,3.174
-0.154,0.043,0.966,2.136,-3.662,3.296
-0.152,0.043,0.965,2.014,-3.540,3.235
-0.154,0.042,0.965,2.075,-3.540,3.296
-0.152,0.041,0.965,2.258,-3.601,3.296
-0.152,0.041,0.963,2.136,-3.601,3.296
-0.153,0.041,0.964,2.136,-3.479,3.113
-0.154,0.042,0.963,2.075,-3.357,3.235
-0.152,0.043,0.966,2.136,-3.296,3.296
-0.152,0.043,0.964,2.197,-3.418,3.235
-0.153,0.045,0.963,2.136,-3.601,3.174
-0.154,0.044,0.963,1.892,-3.601,3.296
-0.153,0.042,0.967,2.258,-3.418,3.235
-0.153,0.042,0.966,2.319,-3.235,3.235
-0.153,0.042,0.965,2.258,-3.418,3.113
-0.153,0.043,0.964,2.197,-3.540,3.113
-0.152,0.042,0.966,2.258,-3.296,3.113
-0.153,0.042,0.966,2.136,-3.296,3.052
-0.153,0.042,0.965,2.136,-3.418,3.235
-0.154,0.043,0.966,2.136,-3.296,3.296
-0.152,0.044,0.966,2.258,-3.479,3.235
-0.152,0.044,0.964,2.197,-3.540,3.357
-0.154,0.043,0.966,2.319,-3.418,3.235
-0.152,0.043,0.967,2.075,-3.418,3.296
-0.152,0.043,0.964,2.136,-3.357,3.235
-0.153,0.043,0.964,2.319,-3.418,3.113
-0.152,0.042,0.964,2.380,-3.235,3.174
-0.152,0.041,0.965,2.319,-3.479,3.357
-0.154,0.042,0.966,2.319,-3.601,3.357
-0.154,0.043,0.965,2.197,-3.479,3.357
-0.153,0.043,0.964,2.258,-3.479,3.296
-0.154,0.042,0.965,2.258,-3.235,3.174
-0.152,0.042,0.966,2.380,-3.418,3.296
-0.154,0.039,0.962,2.075,-3.540,3.296
-0.153,0.039,0.957,2.258,-3.784,3.357
-0.146,0.044,0.960,1.648,-3.418,3.052
-0.162,0.049,0.980,1.770,-2.930,3.174
-0.151,0.035,0.982,2.869,-3.418,3.296
-0.150,0.042,0.958,2.197,-4.028,3.479
-0.159,0.046,0.953,1.587,-4.028,3.235
-0.154,0.045,0.970,2.136,-3.235,3.235
-0.148,0.043,0.976,2.380,-2.869,3.479
-0.157,0.046,0.967,2.197,-3.540,3.113
-0.159,0.049,0.958,2.014,-3.845,3.296
-0.147,0.045,0.961,2.197,-3.235,3.235
-0.150,0.044,0.970,2.258,-3.357,3.235
-0.155,0.044,0.967,2.075,-3.540,3.174
-0.152,0.044,0.960,2.197,-3.662,3.174
-0.156,0.043,0.961,2.258,-3.479,3.296
-0.156,0.040,0.968,2.258,-3.418,3.357
-0.150,0.040,0.966,2.197,-3.357,3.296
-0.151,0.042,0.961,2.197,-3.723,3.357
-0.156,0.044,0.961,2.136,-3.784,3.296
-0.153,0.042,0.965,1.953,-3.418,3.235
-0.151,0.041,0.966,2.075,-3.418,3.235
-0.154,0.042,0.965,2.075,-3.540,3.235
-0.152,0.042,0.964,1.892,-3.479,3.235
-0.148,0.042,0.964,2.014,-3.235,3.113
-0.151,0.041,0.965,2.075,-3.418,3.113
-0.153,0.039,0.965,2.197,-3.479,3.113
-0.155,0.040,0.966,2.136,-3.479,2.991
-0.154,0.042,0.965,2.014,-3.357,3.113
-0.154,0.042,0.966,2.014,-3.418,3.296
-0.155,0.043,0.966,2.014,-3.296,3.235
-0.154,0.044,0.967,2.014,-3.113,3.235
-0.152,0.044,0.967,2.197,-3.296,3.235
-0.153,0.043,0.965,2.136,-3.296,3.296
-0.154,0.042,0.965,2.197,-3.357,3.235
-0.154,0.042,0.965,2.136,-3.479,3.235
-0.153,0.044,0.965,2.197,-3.479,3.113
-0.154,0.044,0.964,2.136,-3.601,3.296
-0.154,0.043,0.965,2.197,-3.418,3.235
-0.154,0.042,0.966,2.075,-3.418,3.174
-0.153,0.043,0.965,2.075,-3.235,3.052
-0.152,0.044,0.964,1.953,-3.357,3.174
-0.152,0.044,0.964,2.014,-3.479,3.113
-0.153,0.043,0.965,2.197,-3.540,3.174
-0.144,0.042,0.954,2.319,-3.601,3.174
-0.156,0.047,0.958,2.258,-4.333,3.113
-0.158,0.042,0.969,2.380,-3.845,2.930
-0.150,0.039,0.976,2.136,-3.601,3.113
-0.152,0.040,0.969,1.770,-3.784,3.174
-0.155,0.043,0.961,1.831,-3.845,2.991
-0.152,0.042,0.959,1.831,-3.540,2.991
-0.154,0.039,0.967,1.953,-3.662,3.235
-0.157,0.035,0.975,1.831,-3.296,3.296
-0.155,0.043,0.967,0.854,-2.930,3.357
-0.153,0.055,0.951,0.610,-3.357,2.869
-0.145,0.044,0.959,2.380,-3.723,2.686
-0.159,0.040,0.966,2.380,-3.296,3.967
-0.159,0.036,0.972,2.625,-3.784,3.357
-0.151,0.045,0.963,2.014,-3.662,2.991
-0.150,0.050,0.949,1.465,-3.540,3.479
-0.354,0.207,0.528,5.188,12.390,6.165
-0.208,0.041,0.891,12.207,56.335,18.372
-0.165,-0.002,1.061,15.808,54.871,22.156
-0.065,-0.064,0.973,15.686,67.993,13.855
0.125,-0.056,0.864,-5.676,79.468,9.766
-0.219,0.236,1.149,-17.883,68.359,12.268
-0.056,0.016,1.186,14.221,46.997,9.583
0.046,-0.029,1.046,18.433,39.490,6.531
0.076,0.014,1.006,8.179,24.231,8.179
0.039,0.011,1.080,5.554,3.113,4.211
-0.023,-0.001,1.104,2.563,-12.390,2.258
0.012,-0.004,1.063,-3.967,-20.874,1.648
0.039,-0.023,1.024,-12.329,-29.114,0.854
0.036,0.029,0.992,-23.071,-36.255,2.258
-0.031,0.120,0.903,-29.175,-33.020,6.653
-0.162,0.124,0.820,-23.743,-18.799,11.841
-0.259,0.094,0.842,-12.878,-12.207,9.766
-0.271,0.045,0.936,0.488,-10.742,1.038
-0.192,-0.014,1.021,9.216,-10.132,-5.493
-0.084,0.002,1.035,6.653,-9.277,-8.118
-0.027,0.060,0.988,0.305,-12.573,-7.874
-0.047,0.053,0.949,1.038,-18.494,-10.071
-0.106,0.023,0.965,5.249,-23.865,-14.160
-0.158,0.012,0.982,7.202,-26.367,-17.883
-0.164,0.027,0.967,5.798,-25.513,-20.203
-0.187,0.058,0.944,1.465,-23.376,-16.846
-0.237,0.044,0.915,-1.038,-15.381,-13.733
-0.239,0.032,0.907,-2.930,-3.967,-11.536
-0.150,0.069,0.937,-6.714,8.179,-8.911
-0.106,0.109,0.945,-9.644,15.625,-5.005
-0.074,0.087,0.987,-4.028,17.151,-2.808
-0.061,0.042,1.032,2.136,9.705,-3.357
-0.089,0.043,1.022,2.136,1.770,-3.784
-0.109,0.068,0.995,0.488,-2.197,-5.005
-0.106,0.049,0.951,0.977,-3.235,-5.737
-0.114,0.031,0.953,1.892,-2.502,-8.301
-0.114,0.032,0.946,2.502,-1.160,-13.123
-0.107,0.062,0.947,2.197,-1.282,-16.968
-0.100,0.089,0.954,0.366,-1.221,-15.076
-0.123,0.065,0.964,0.122,0.244,-10.742
-0.143,0.051,0.949,-0.610,3.113,-7.996
-0.137,0.048,0.923,-2.563,6.958,-6.714
-0.081,0.068,0.889,-4.578,11.658,-6.531
-0.010,0.130,0.908,-4.639,14.282,-4.517
-0.008,0.184,1.040,-0.122,10.559,3.174
-0.062,0.169,1.157,10.986,-1.160,14.160
-0.115,0.093,1.146,21.667,-22.644,25.085
-0.177,0.002,0.976,27.466,-42.725,35.339
-0.176,-0.361,0.255,18.188,-28.198,42.908
-0.262,0.003,0.766,-39.063,55.603,43.396
-0.178,0.460,1.386,-37.537,62.561,29.358
0.115,0.101,1.158,17.822,28.076,3.174
0.119,0.027,0.999,13.733,17.212,14.954
0.067,0.130,1.120,2.686,-4.761,20.386
-0.093,0.053,0.995,17.761,-33.875,9.277
-0.151,0.018,0.801,15.503,-33.020,13.489
-0.089,0.064,0.681,-1.404,-5.554,19.287
-0.002,0.164,0.785,-9.094,22.339,19.470
-0.011,0.196,0.942,2.441,28.076,20.325
0.017,0.149,1.071,15.625,29.480,24.109
0.151,0.038,1.170,24.475,16.663,25.940
0.139,-0.015,1.215,21.423,-0.610,23.376
0.268,0.053,1.178,7.812,-2.869,20.447
0.256,0.076,1.081,-0.610,-6.104,16.785
-0.071,0.034,1.092,3.723,-25.757,10.376
-0.526,-0.009,1.185,7.629,-45.349,15.198
-0.436,0.001,1.189,7.629,-50.781,24.109
-0.093,0.055,1.118,10.376,-52.246,20.691
-0.036,0.113,1.083,16.235,-59.753,14.832
-0.134,0.046,1.088,26.367,-66.895,15.686
-0.237,-0.051,1.131,36.682,-69.946,15.625
-0.271,-0.088,1.167,43.213,-70.557,5.859
-0.276,-0.058,1.182,43.701,-66.833,-2.930
-0.209,-0.047,1.189,40.283,-60.791,-6.409
-0.198,-0.020,1.170,35.461,-57.190,-3.784
-0.207,0.026,1.157,30.457,-52.979,1.587
-0.220,0.017,1.140,25.208,-48.401,3.296
-0.233,-0.075,1.086,23.315,-42.725,3.418
-0.257,-0.087,1.137,26.917,-40.466,7.202
-0.272,-0.029,1.123,28.503,-44.495,10.010
-0.155,0.076,1.093,17.029,-48.523,11.292
-0.078,0.197,1.074,8.972,-49.377,6.470
0.092,0.202,1.029,9.338,-48.096,3.113
0.035,0.128,0.953,4.944,-45.044,-7.141
-0.118,0.029,0.860,10.193,-48.096,-23.193
-0.139,-0.040,1.010,36.621,-47.913,-38.635
-0.210,0.014,0.980,34.058,-46.570,-58.838
-0.255,0.039,1.039,30.579,-34.851,-69.336
-0.209,0.038,1.106,25.146,-19.714,-65.857
-0.328,-0.050,0.958,13.245,-12.146,-61.340
-0.361,-0.134,1.001,21.729,-10.437,-44.006
-0.328,-0.091,1.068,28.076,-8.972,-33.630
-0.208,-0.039,1.061,23.682,-3.845,-30.273
-0.103,-0.022,1.005,15.808,4.883,-26.855
-0.047,-0.027,0.959,7.751,16.113,-27.039
-0.027,-0.046,0.894,-0.183,30.640,-32.349
-0.002,-0.066,0.842,-7.935,50.598,-41.748
0.053,-0.063,0.803,-15.991,72.144,-54.565
0.106,-0.038,0.751,-24.353,92.102,-66.040
0.129,-0.041,0.715,-31.128,109.253,-73.242
0.111,-0.040,0.711,-36.560,121.582,-77.881
0.095,0.005,0.770,-45.166,129.883,-80.017
0.098,0.022,0.834,-58.655,132.385,-77.209
0.031,0.086,0.807,-72.876,124.573,-67.871
-0.122,0.116,0.714,-74.036,108.093,-60.425
-0.146,0.099,0.717,-63.904,98.694,-57.983
-0.120,0.080,0.716,-49.561,88.562,-56.091
-0.105,0.108,0.729,-35.767,71.655,-47.424
-0.094,0.135,0.714,-25.940,54.749,-32.471
-0.048,0.151,0.697,-19.958,44.617,-15.869
-0.012,0.131,0.682,-14.282,38.635,-4.089
-0.036,0.081,0.672,-6.897,33.386,2.563
-0.034,0.079,0.675,3.479,30.457,6.775
-0.038,0.050,0.739,18.616,26.062,12.329
-0.105,0.054,0.805,32.288,18.250,20.081
-0.188,0.026,0.878,41.321,12.268,31.067
-0.239,-0.016,0.930,46.814,6.470,39.490
-0.275,-0.063,0.954,48.828,0.244,44.739
-0.307,-0.111,0.964,47.974,-3.418,45.898
-0.297,-0.146,0.977,47.424,-3.601,41.382
-0.262,-0.161,0.999,47.729,-2.136,33.936
-0.223,-0.137,1.021,48.279,0.305,24.841
-0.189,-0.102,1.051,49.011,2.991,15.808
-0.181,-0.079,1.078,51.392,3.174,9.277
-0.210,-0.080,1.102,55.908,-0.061,6.958
-0.249,-0.078,1.157,60.486,-3.906,7.263
-0.266,-0.073,1.225,63.293,-7.996,7.507
-0.257,-0.069,1.266,60.669,-12.512,8.484
-0.233,-0.067,1.282,52.979,-16.357,10.315
-0.200,-0.058,1.267,43.213,-19.043,8.850
-0.155,-0.032,1.243,34.912,-19.165,2.380
-0.107,-0.008,1.239,29.541,-18.311,-6.531
-0.067,-0.003,1.257,25.818,-18.311,-13.428
-0.062,0.009,1.270,21.667,-21.606,-16.174
-0.071,-0.012,1.269,15.076,-25.452,-14.587
0.021,0.000,1.220,4.211,-26.123,-10.803
0.034,-0.002,1.141,-9.705,-26.855,-8.789
0.001,-0.032,1.078,-22.827,-26.062,-9.888
-0.013,-0.019,1.034,-31.189,-23.682,-13.062
-0.017,0.001,1.003,-32.166,-22.339,-15.625
0.035,0.035,0.969,-31.799,-18.982,-22.949
0.048,0.070,0.908,-33.081,-14.038,-37.292
0.067,0.041,0.872,-25.024,-9.888,-37.842
0.065,-0.022,0.857,-16.113,-6.287,-33.142
0.057,-0.053,0.864,-14.038,-5.127,-33.142
0.047,-0.035,0.860,-14.282,-6.104,-31.250
0.037,-0.011,0.848,-11.902,-7.690,-25.208
0.038,-0.007,0.839,-6.531,-9.705,-18.250
0.036,-0.009,0.843,-0.305,-12.512,-12.268
0.027,-0.025,0.861,5.798,-15.503,-6.897
0.013,-0.029,0.875,9.094,-17.151,-2.319
0.017,-0.029,0.883,9.827,-17.700,0.488
0.010,-0.049,0.887,9.094,-18.982,2.991
-0.048,-0.041,0.862,8.423,-21.667,5.188
-0.151,-0.062,0.856,11.414,-22.339,4.761
-0.189,-0.085,0.877,17.883,-18.372,-1.038
-0.169,-0.120,0.894,22.705,-11.658,-8.240
-0.113,-0.151,0.917,23.560,-8.606,-13.000
-0.124,-0.131,0.891,20.386,-10.681,-10.864
-0.119,-0.125,0.895,20.264,-12.390,-3.662
-0.106,-0.126,0.923,23.804,-15.015,3.174
-0.097,-0.115,0.947,25.330,-17.639,8.850
-0.090,-0.097,0.979,24.109,-19.043,14.099
-0.094,-0.067,1.012,21.179,-19.531,18.250
-0.114,-0.038,1.027,17.334,-19.043,20.874
-0.126,-0.037,1.038,14.221,-17.212,21.790
-0.122,-0.045,1.055,10.620,-14.832,21.301
-0.121,-0.044,1.046,5.432,-13.306,19.897
-0.110,-0.042,1.041,-0.488,-11.719,18.616
-0.081,-0.029,1.022,-5.798,-9.766,17.639
-0.040,-0.016,0.995,-9.705,-7.751,17.334
-0.012,-0.020,0.966,-10.437,-6.836,18.311
0.004,-0.021,0.957,-8.179,-7.019,20.691
0.010,-0.013,0.958,-5.371,-7.751,24.414
0.000,-0.005,0.962,-2.991,-9.277,28.931
-0.013,0.002,0.969,-0.854,-10.620,32.837
-0.019,0.012,0.985,1.160,-11.353,35.522
-0.040,0.018,0.993,2.380,-11.658,37.109
-0.074,0.001,0.986,3.296,-12.207,37.659
-0.123,-0.019,0.996,3.845,-13.916,37.109
-0.172,-0.028,1.001,2.502,-16.418,34.241
-0.211,-0.031,0.996,-0.183,-18.738,29.663
-0.227,-0.034,0.970,-2.014,-19.104,24.231
-0.222,-0.043,0.947,-2.258,-17.578,18.616
-0.188,-0.047,0.925,-1.587,-16.235,13.245
-0.155,-0.052,0.903,-0.610,-15.625,9.705
-0.119,-0.047,0.884,1.099,-16.052,8.484
-0.098,-0.037,0.869,3.357,-17.334,9.399
-0.096,-0.037,0.862,6.836,-18.921,11.841
-0.109,-0.039,0.870,10.193,-19.226,14.099
-0.119,-0.036,0.873,12.512,-18.433,14.771
-0.123,-0.032,0.871,14.160,-16.296,13.184
-0.117,-0.036,0.865,16.052,-13.611,10.437
-0.111,-0.056,0.861,18.372,-10.437,7.874
-0.118,-0.066,0.864,20.569,-7.141,6.348
-0.114,-0.064,0.866,22.949,-3.479,5.615
-0.102,-0.045,0.833,25.269,-1.282,4.700
-0.100,-0.032,0.843,31.372,-1.587,3.601
-0.085,-0.059,0.856,41.931,-0.305,4.150
-0.084,-0.068,0.860,50.903,0.427,7.263
-0.101,-0.081,0.855,59.143,0.610,10.925
-0.113,-0.084,0.851,67.078,2.441,13.855
-0.123,-0.109,0.893,77.087,5.188,17.151
-0.146,-0.156,0.912,86.609,7.996,20.203
-0.161,-0.177,0.931,90.942,9.705,21.851
-0.169,-0.202,0.957,92.773,10.986,21.973
-0.157,-0.226,0.952,92.102,13.672,21.484
-0.136,-0.253,0.978,89.722,14.160,20.386
-0.117,-0.262,0.961,86.060,12.695,18.127
-0.107,-0.269,0.974,81.238,10.376,16.663
-0.092,-0.280,0.975,77.271,8.423,16.418
-0.089,-0.285,1.000,72.327,5.432,16.296
-0.097,-0.302,1.027,67.566,2.380,15.869
-0.116,-0.300,1.005,59.448,0.122,15.686
-0.126,-0.314,1.040,51.270,-0.854,15.808
-0.132,-0.341,1.048,44.617,0.732,15.869
-0.134,-0.353,1.047,34.363,2.319,14.587
-0.126,-0.362,1.046,23.926,3.418,11.902
-0.117,-0.359,1.017,14.832,4.211,9.644
-0.118,-0.351,0.997,8.423,1.770,9.155
-0.128,-0.348,0.991,6.165,-2.502,9.277
-0.130,-0.351,0.992,6.531,-6.714,10.010
-0.129,-0.357,0.995,7.751,-11.108,10.620
-0.135,-0.368,1.001,7.996,-14.893,10.742
-0.140,-0.369,1.004,6.104,-16.968,10.010
-0.142,-0.361,1.001,3.174,-17.273,9.033
-0.142,-0.355,0.993,0.854,-16.541,8.179
-0.139,-0.355,0.982,-0.610,-15.259,7.446
-0.129,-0.346,0.970,-1.038,-14.893,6.348
-0.128,-0.342,0.962,0.366,-16.541,5.737
-0.143,-0.346,0.969,2.686,-19.714,5.676
-0.160,-0.352,0.974,4.272,-22.827,5.737
-0.172,-0.353,0.974,4.211,-24.719,4.883
-0.174,-0.350,0.968,3.479,-25.269,3.723
-0.167,-0.341,0.963,2.197,-24.414,2.258
-0.153,-0.330,0.958,0.732,-22.583,0.610
-0.143,-0.321,0.946,-0.793,-19.714,-1.038
-0.135,-0.318,0.928,-2.197,-16.846,-2.258
-0.126,-0.313,0.906,-3.540,-14.709,-3.235
-0.120,-0.310,0.886,-2.930,-14.160,-3.662
-0.124,-0.308,0.878,-1.404,-14.771,-3.418
-0.124,-0.308,0.876,0.244,-15.686,-2.869
-0.121,-0.303,0.880,1.770,-16.724,-2.075
-0.121,-0.298,0.882,3.174,-18.066,-1.160
-0.125,-0.295,0.893,4.517,-19.653,-0.122
-0.130,-0.290,0.902,5.676,-21.057,0.549
-0.139,-0.287,0.915,6.409,-21.606,0.793
-0.154,-0.286,0.923,6.165,-20.630,0.916
-0.165,-0.287,0.923,5.066,-17.395,0.610
-0.157,-0.291,0.921,3.601,-12.878,-0.916
-0.135,-0.294,0.919,2.686,-8.911,-2.686
-0.117,-0.295,0.921,2.441,-7.263,-3.052
-0.122,-0.302,0.934,2.930,-8.606,-1.648
-0.149,-0.314,0.953,3.601,-11.597,0.610
-0.183,-0.326,0.968,3.967,-13.916,2.686
-0.218,-0.335,0.983,4.639,-15.564,4.272
-0.248,-0.344,0.999,4.883,-15.930,4.333
-0.264,-0.351,1.007,4.272,-15.381,2.625
-0.261,-0.352,1.001,3.296,-14.160,0.671
-0.234,-0.344,0.990,2.563,-13.672,-1.099
-0.215,-0.339,0.983,2.869,-16.174,-1.587
-0.208,-0.340,0.984,4.089,-20.447,-0.916
-0.206,-0.338,0.990,4.700,-24.475,0.183
-0.200,-0.328,1.000,4.517,-27.405,0.427
-0.205,-0.322,1.009,4.150,-29.541,0.366
-0.235,-0.325,1.016,3.479,-31.006,0.183
-0.267,-0.332,1.022,1.648,-31.799,-0.549
-0.284,-0.332,1.016,-1.648,-31.372,-2.014
-0.286,-0.327,1.001,-5.432,-30.334,-4.089
-0.279,-0.318,0.983,-8.545,-28.870,-6.226
-0.267,-0.304,0.967,-10.986,-27.466,-8.484
-0.251,-0.296,0.948,-13.062,-26.062,-10.559
-0.234,-0.284,0.921,-15.808,-23.926,-11.780
-0.218,-0.268,0.891,-18.738,-22.400,-12.207
-0.211,-0.249,0.864,-21.301,-21.118,-12.085
-0.216,-0.235,0.841,-23.315,-19.165,-12.024
-0.221,-0.225,0.814,-25.818,-15.686,-11.963
-0.208,-0.213,0.781,-28.931,-10.498,-12.634
-0.175,-0.201,0.733,-31.982,-4.944,-13.367
-0.139,-0.195,0.675,-33.691,-0.977,-12.634
-0.114,-0.187,0.623,-33.630,0.916,-10.620
-0.100,-0.173,0.585,-32.349,1.099,-8.362
-0.084,-0.150,0.564,-31.799,1.282,-6.897
-0.061,-0.134,0.533,-32.654,2.625,-5.981
-0.014,-0.125,0.475,-34.973,6.470,-5.493
0.051,-0.125,0.381,-38.269,13.672,-4.883
0.113,-0.137,0.273,-39.612,23.010,-3.235
0.155,-0.159,0.179,-37.720,33.936,0.244
0.189,-0.188,0.109,-31.799,46.326,5.676
0.211,-0.219,0.065,-21.606,59.692,13.062
0.256,-0.255,0.059,-5.371,70.496,22.522
0.304,-0.294,0.100,19.043,74.402,35.095
0.257,-0.370,0.235,53.101,67.200,51.453
0.159,-0.455,0.473,89.294,52.734,71.411
-0.012,-0.528,0.786,119.507,34.302,91.675
-0.243,-0.595,1.178,142.395,12.817,105.957
-0.494,-0.620,1.692,156.006,-9.521,111.450
-0.759,-0.582,2.186,156.189,-28.503,110.962
-1.015,-0.572,2.631,144.104,-38.086,106.384
-1.192,-0.597,2.890,117.249,-33.813,92.407
-1.213,-0.658,2.960,70.923,-16.907,62.622
-1.099,-0.747,2.836,12.573,2.319,19.226
-0.913,-0.788,2.564,-46.814,17.822,-25.269
-0.722,-0.741,2.229,-94.482,26.733,-58.960
-0.561,-0.702,1.952,-119.385,27.405,-79.773
-0.444,-0.667,1.747,-125.366,19.653,-89.905
-0.270,-0.585,1.602,-124.939,7.446,-92.468
-0.166,-0.496,1.512,-124.817,-12.329,-90.332
-0.116,-0.373,1.416,-128.906,-36.072,-86.548
-0.011,-0.286,1.316,-135.010,-52.856,-83.130
0.094,-0.218,1.165,-147.156,-63.660,-80.444
0.185,-0.163,0.963,-164.612,-69.641,-75.439
0.236,-0.129,0.709,-181.213,-70.251,-68.237
0.267,-0.129,0.427,-191.711,-65.430,-59.937
0.289,-0.144,0.127,-194.946,-56.213,-50.659
0.298,-0.155,-0.167,-192.017,-46.631,-41.443
0.281,-0.141,-0.445,-180.908,-36.621,-35.034
0.261,-0.114,-0.667,-159.607,-23.560,-29.968
0.263,-0.083,-0.820,-130.310,-9.216,-23.682
0.262,-0.054,-0.907,-96.252,3.235,-14.465
0.239,-0.040,-0.922,-59.082,14.893,-3.052
0.191,-0.058,-0.861,-22.156,28.137,9.033
0.161,-0.079,-0.737,8.789,45.837,19.714
0.183,-0.065,-0.569,33.142,67.627,28.381
0.281,-0.016,-0.328,54.871,89.905,35.950
0.430,0.060,-0.036,76.599,104.675,43.884
0.486,0.071,0.265,99.365,103.455,56.274
0.427,0.037,0.617,115.295,88.562,75.317
0.324,-0.014,0.901,114.624,72.937,97.168
0.152,-0.095,1.126,103.027,64.392,114.502
-0.050,-0.188,1.302,90.820,65.674,122.437
-0.271,-0.314,1.476,84.961,72.266,122.559
-0.445,-0.403,1.732,85.388,79.529,112.793
-0.624,-0.455,2.034,86.365,80.383,98.206
-0.767,-0.459,2.338,84.473,72.205,82.275
-0.859,-0.449,2.568,77.698,57.922,63.416
-0.876,-0.432,2.712,64.514,41.809,42.664
-0.806,-0.394,2.771,45.898,27.893,20.203
-0.685,-0.366,2.740,24.109,18.921,-1.831
-0.573,-0.361,2.632,0.793,14.526,-20.325
-0.467,-0.362,2.475,-22.278,12.756,-35.645
-0.316,-0.368,2.295,-44.434,8.972,-48.462
-0.255,-0.330,2.050,-65.125,-0.671,-55.542
-0.023,-0.356,1.907,-76.599,-10.010,-60.059
0.067,-0.296,1.698,-90.576,-31.128,-58.167
0.207,-0.256,1.540,-104.736,-56.824,-52.307
0.187,-0.198,1.378,-115.234,-88.501,-41.504
0.100,-0.140,1.226,-120.911,-115.112,-31.799
0.075,-0.134,1.145,-117.493,-123.901,-29.663
0.063,-0.086,1.034,-117.737,-125.244,-31.372
0.061,-0.075,0.916,-118.591,-123.535,-33.203
0.096,-0.073,0.788,-117.798,-121.643,-35.461
0.100,-0.046,0.638,-117.493,-120.422,-38.635
0.096,-0.011,0.496,-115.845,-114.319,-44.983
0.130,0.012,0.357,-114.136,-99.548,-53.162
0.189,0.037,0.181,-116.760,-80.933,-58.350
0.258,0.061,-0.029,-121.460,-62.744,-59.204
0.320,0.082,-0.271,-123.962,-46.631,-55.725
0.376,0.105,-0.514,-119.995,-32.837,-48.462
0.371,0.132,-0.730,-106.445,-19.287,-37.964
0.379,0.139,-0.863,-82.703,-3.113,-27.771
0.355,0.120,-0.947,-53.101,14.038,-16.663
0.289,0.095,-0.969,-23.560,29.297,-3.662
0.245,0.047,-0.912,6.226,46.875,7.446
0.238,0.040,-0.810,32.898,68.298,16.113
0.273,0.043,-0.636,59.387,93.140,22.217
0.406,0.082,-0.398,86.853,117.554,25.452
0.565,0.123,-0.125,113.831,131.836,32.593
0.644,0.137,0.223,139.343,128.174,49.255
0.606,0.114,0.613,158.936,110.535,73.242
0.487,0.060,1.012,168.701,87.830,99.731
0.290,0.003,1.342,164.917,70.923,123.352
0.022,-0.082,1.652,155.884,63.538,137.268
-0.281,-0.167,1.997,144.836,68.848,139.526
-0.547,-0.231,2.370,132.446,82.214,131.653
-0.744,-0.256,2.724,118.530,92.651,114.502
-0.880,-0.260,2.982,98.389,92.834,91.370
-0.964,-0.263,3.109,72.571,81.726,65.186
-0.973,-0.275,3.126,46.448,61.646,39.063
-0.911,-0.274,3.050,23.437,38.391,13.916
-0.774,-0.265,2.927,3.479,19.287,-7.996
-0.607,-0.254,2.744,-16.541,7.202,-26.978
-0.426,-0.269,2.513,-36.682,0.122,-43.091
-0.181,-0.280,2.303,-55.420,-6.714,-54.810
-0.009,-0.252,2.054,-74.585,-22.339,-56.641
0.221,-0.245,1.893,-91.248,-45.593,-50.659
0.270,-0.154,1.649,-109.680,-81.604,-35.583
0.099,-0.130,1.386,-118.530,-115.723,-17.883
-0.007,-0.163,1.256,-112.488,-125.000,-19.287
0.036,-0.143,1.159,-111.267,-117.065,-33.630
0.085,-0.098,0.985,-118.286,-113.525,-39.063
0.098,-0.059,0.805,-122.009,-117.004,-36.926
0.107,-0.050,0.665,-116.821,-120.361,-35.583
0.117,-0.039,0.521,-110.657,-120.239,-38.696
0.146,-0.012,0.374,-106.018,-115.601,-44.861
0.190,0.022,0.231,-101.990,-106.934,-50.232
0.235,0.070,0.093,-98.145,-96.191,-52.185
0.267,0.126,-0.016,-93.323,-83.435,-51.147
0.270,0.175,-0.123,-87.646,-68.298,-47.668
0.274,0.207,-0.223,-81.055,-51.575,-42.358
0.280,0.233,-0.310,-73.303,-35.522,-36.072
0.253,0.235,-0.403,-65.125,-21.301,-29.114
0.218,0.223,-0.497,-55.542,-6.714,-21.667
0.184,0.188,-0.589,-44.189,9.766,-14.771
0.176,0.168,-0.665,-31.677,30.945,-10.010
0.196,0.144,-0.719,-16.479,55.237,-7.019
0.259,0.125,-0.721,2.869,79.773,-4.150
0.363,0.130,-0.642,28.503,99.792,0.610
0.464,0.140,-0.483,59.570,110.535,10.010
0.511,0.126,-0.280,90.881,108.215,25.085
0.491,0.079,-0.009,119.263,94.727,45.898
0.409,0.057,0.297,140.869,79.529,69.092
0.292,0.032,0.612,155.212,70.679,87.708
0.179,-0.010,0.933,163.330,70.190,98.877
0.066,-0.046,1.248,168.579,70.251,104.858
-0.073,-0.086,1.656,175.110,66.162,110.291
-0.271,-0.118,2.132,179.260,58.105,116.150
-0.510,-0.147,2.587,172.852,48.645,118.347
-0.750,-0.131,2.966,154.114,38.818,109.863
-0.961,-0.146,3.219,126.038,29.175,92.834
-1.078,-0.160,3.315,87.830,21.667,67.566
-1.056,-0.163,3.239,44.434,17.822,34.607
-0.911,-0.173,3.035,4.944,15.259,1.404
-0.750,-0.184,2.785,-24.048,10.742,-25.269
-0.534,-0.200,2.530,-44.189,4.578,-45.410
-0.359,-0.180,2.261,-61.340,-6.714,-57.312
-0.210,-0.170,2.015,-72.571,-21.240,-61.890
-0.064,-0.154,1.791,-79.285,-34.912,-64.087
0.055,-0.116,1.576,-86.243,-47.791,-63.110
0.206,-0.076,1.379,-94.360,-59.814,-57.983
0.341,-0.033,1.216,-102.966,-78.918,-47.791
0.263,0.044,0.996,-114.136,-106.506,-28.687
0.176,0.041,0.875,-114.319,-124.146,-15.259
0.106,0.068,0.743,-112.061,-127.991,-14.954
0.072,0.088,0.564,-110.596,-122.803,-18.066
0.122,0.076,0.436,-103.760,-112.061,-23.010
0.155,0.092,0.315,-97.778,-103.760,-29.419
0.165,0.127,0.181,-93.506,-96.619,-33.630
0.179,0.158,0.078,-85.144,-85.693,-35.461
0.204,0.177,0.002,-73.975,-70.801,-35.400
0.225,0.196,-0.060,-63.232,-55.481,-32.471
0.204,0.207,-0.116,-54.382,-41.748,-28.503
0.180,0.218,-0.172,-47.363,-27.466,-25.574
0.161,0.211,-0.242,-41.382,-11.536,-22.156
0.148,0.182,-0.330,-36.316,4.333,-18.127
0.159,0.148,-0.436,-32.349,20.874,-14.587
0.192,0.113,-0.554,-27.039,37.720,-11.719
0.227,0.085,-0.658,-16.785,55.481,-7.690
0.229,0.050,-0.703,2.075,73.364,-1.526
0.246,-0.006,-0.654,29.419,91.064,5.981
0.306,-0.020,-0.532,60.059,106.323,11.597
0.350,-0.042,-0.356,92.163,113.403,20.508
0.369,-0.065,-0.116,125.000,108.521,34.668
0.303,-0.101,0.160,156.982,91.736,52.979
0.205,-0.128,0.515,187.073,68.909,71.228
0.044,-0.170,0.896,209.717,46.143,85.510
-0.138,-0.203,1.315,224.243,28.381,96.069
-0.297,-0.208,1.810,230.835,18.738,104.187
-0.435,-0.176,2.356,228.943,15.198,106.873
-0.588,-0.123,2.868,209.534,16.113,100.952
-0.713,-0.073,3.224,169.128,22.705,86.365
-0.821,-0.057,3.365,114.258,33.203,64.331
-0.897,-0.083,3.337,57.434,41.931,35.339
-0.935,-0.138,3.187,7.935,44.067,5.432
-0.930,-0.155,2.987,-28.137,37.292,-20.447
-0.816,-0.167,2.767,-51.392,24.963,-43.213
-0.629,-0.155,2.537,-67.444,8.545,-61.096
-0.396,-0.128,2.301,-78.369,-8.545,-72.693
-0.119,-0.084,2.068,-85.144,-24.475,-79.285
0.093,-0.033,1.834,-91.309,-38.818,-79.041
0.268,0.007,1.626,-96.191,-49.377,-73.730
0.409,0.046,1.443,-101.135,-60.242,-63.477
0.445,0.080,1.267,-105.835,-77.637,-46.326
0.381,0.087,1.130,-109.070,-96.985,-27.588
0.266,0.084,1.012,-111.511,-112.122,-13.977
0.160,0.076,0.882,-114.258,-119.324,-7.874
0.104,0.065,0.717,-115.601,-118.408,-7.812
0.092,0.057,0.526,-113.953,-112.427,-11.414
0.112,0.056,0.362,-107.849,-104.065,-16.968
0.122,0.080,0.197,-99.243,-94.971,-21.240
0.145,0.092,0.061,-87.341,-83.557,-24.048
0.161,0.100,-0.051,-75.500,-71.716,-23.987
0.162,0.093,-0.156,-66.406,-61.279,-21.484
0.127,0.086,-0.268,-59.875,-53.162,-17.517
0.078,0.086,-0.390,-52.673,-43.640,-14.038
0.036,0.058,-0.514,-41.565,-29.053,-11.230
0.022,0.010,-0.623,-27.893,-9.399,-9.094
0.003,-0.035,-0.715,-14.526,11.597,-6.897
0.042,-0.053,-0.751,0.671,36.438,-6.104
0.114,-0.047,-0.727,20.325,61.523,-5.066
0.188,-0.051,-0.655,45.410,80.627,-1.099
0.248,-0.073,-0.512,73.914,90.698,7.507
0.273,-0.080,-0.322,101.868,91.431,19.775
0.269,-0.078,-0.061,127.869,84.839,34.241
0.230,-0.068,0.212,148.010,73.914,49.377
0.136,-0.087,0.491,159.851,63.721,64.270
0.038,-0.094,0.778,163.391,59.631,74.280
-0.019,-0.095,1.070,159.973,63.965,78.003
-0.026,-0.070,1.327,150.024,75.012,75.928
-0.027,-0.067,1.579,139.771,86.243,72.205
-0.090,-0.073,1.865,133.789,90.393,69.214
-0.251,-0.093,2.195,130.798,82.642,69.641
-0.485,-0.109,2.516,125.427,65.247,72.021
-0.723,-0.107,2.798,112.244,43.640,69.458
-0.888,-0.087,3.009,90.637,26.062,57.007
-0.931,-0.049,3.100,60.913,15.198,35.828
-0.849,-0.021,3.066,26.917,7.874,10.559
-0.705,-0.001,2.938,-6.226,0.671,-12.329
-0.566,0.013,2.761,-33.875,-8.850,-29.846
-0.464,0.018,2.555,-56.213,-18.066,-42.603
-0.323,-0.004,2.334,-73.669,-21.912,-54.871
-0.161,-0.029,2.093,-88.562,-24.780,-65.674
-0.016,-0.020,1.845,-102.051,-31.311,-70.557
0.144,-0.011,1.607,-111.694,-39.001,-69.153
0.291,0.008,1.387,-118.958,-49.683,-62.195
0.361,0.045,1.196,-124.756,-66.467,-48.218
0.322,0.067,1.028,-126.953,-85.999,-30.823
0.276,0.052,0.940,-126.526,-100.952,-17.761
0.188,0.087,0.796,-128.601,-111.206,-10.864
0.120,0.080,0.645,-128.418,-113.159,-8.301
0.108,0.055,0.532,-124.268,-107.849,-12.268
0.072,0.076,0.383,-123.779,-101.868,-18.311
0.051,0.101,0.245,-119.873,-92.590,-21.667
0.063,0.116,0.125,-110.657,-79.834,-24.292
0.060,0.118,0.011,-100.525,-67.017,-26.184
0.071,0.109,-0.114,-91.553,-55.603,-27.222
0.087,0.101,-0.253,-83.862,-45.654,-26.428
0.099,0.097,-0.408,-74.219,-36.255,-23.499
0.109,0.098,-0.560,-60.852,-23.132,-20.752
0.153,0.066,-0.675,-42.908,-5.066,-18.250
0.162,0.036,-0.785,-23.804,12.817,-13.550
0.139,-0.002,-0.837,-2.930,31.494,-6.897
0.142,-0.046,-0.818,20.264,53.772,-1.587
0.190,-0.046,-0.744,45.349,78.064,3.235
0.263,-0.030,-0.593,71.899,100.098,8.179
0.365,-0.006,-0.379,99.304,115.967,14.099
0.431,0.004,-0.132,125.244,121.277,24.048
0.424,0.017,0.170,147.034,114.807,39.429
0.335,-0.003,0.468,160.522,102.722,56.763
0.229,-0.030,0.762,167.175,93.994,72.449
0.142,-0.031,1.056,169.434,89.600,81.604
0.061,-0.041,1.381,170.166,87.280,85.876
-0.023,-0.033,1.737,170.044,83.313,89.172
-0.161,-0.023,2.121,166.748,76.233,91.736
-0.361,-0.021,2.486,157.104,67.200,91.125
-0.537,-0.021,2.772,138.306,59.021,84.167
-0.646,-0.007,2.944,109.924,52.856,68.726
-0.685,0.004,2.989,74.829,47.729,47.607
-0.671,0.011,2.936,40.039,41.992,24.902
-0.612,-0.000,2.816,10.986,33.386,3.906
-0.532,-0.017,2.671,-11.475,20.325,-11.963
-0.488,-0.048,2.482,-30.273,5.859,-23.682
-0.370,-0.073,2.252,-46.448,-4.089,-35.522
-0.235,-0.097,2.016,-58.838,-12.451,-46.082
-0.094,-0.110,1.792,-67.810,-22.339,-52.368
0.063,-0.098,1.596,-74.158,-33.142,-54.077
0.184,-0.057,1.410,-79.956,-47.668,-49.866
0.251,-0.026,1.269,-84.106,-65.552,-40.466
0.266,-0.009,1.173,-88.562,-85.999,-28.809
0.172,0.046,1.043,-96.741,-106.445,-16.907
0.052,0.053,0.917,-100.525,-117.188,-9.888
-0.009,0.023,0.785,-100.525,-115.845,-11.963
-0.017,0.017,0.625,-101.868,-109.436,-19.958
0.009,0.034,0.450,-101.929,-101.318,-29.236
0.044,0.056,0.295,-96.558,-92.651,-36.133
0.097,0.082,0.162,-87.036,-82.581,-40.771
0.143,0.111,0.045,-75.745,-73.425,-41.809
0.160,0.134,-0.034,-62.378,-65.857,-39.001
0.171,0.150,-0.083,-48.096,-58.716,-33.875
0.161,0.165,-0.119,-35.522,-51.270,-28.137
0.166,0.172,-0.165,-24.597,-41.626,-22.766
0.188,0.174,-0.231,-15.137,-28.625,-18.066
0.189,0.158,-0.313,-6.592,-12.512,-13.123
0.202,0.126,-0.391,2.075,9.216,-8.423
0.246,0.112,-0.441,11.597,36.682,-5.127
0.298,0.095,-0.473,24.963,65.796,-1.892
0.358,0.057,-0.445,44.006,92.102,3.723
0.435,0.043,-0.356,67.749,110.840,10.803
0.494,0.014,-0.225,95.215,117.676,21.240
0.501,-0.034,-0.015,126.709,110.596,36.865
0.427,-0.064,0.248,158.081,92.163,57.556
0.269,-0.132,0.559,184.143,69.824,78.857
0.088,-0.180,0.978,203.491,52.612,95.154
-0.108,-0.203,1.444,212.952,44.617,103.271
-0.244,-0.186,1.891,209.106,46.143,102.844
-0.316,-0.145,2.276,192.749,50.354,96.802
-0.422,-0.139,2.591,168.213,51.086,87.402
-0.586,-0.170,2.806,136.780,46.814,75.745
-0.742,-0.214,2.876,99.548,40.710,59.509
-0.805,-0.254,2.833,60.974,35.095,37.109
-0.768,-0.279,2.712,27.832,29.541,11.169
-0.683,-0.290,2.564,3.174,21.851,-12.756
-0.588,-0.286,2.392,-14.038,13.794,-32.593
-0.472,-0.283,2.215,-25.940,6.958,-49.927
-0.310,-0.273,2.026,-35.339,-1.404,-64.514
-0.137,-0.243,1.854,-41.931,-13.428,-71.655
0.096,-0.193,1.731,-46.570,-31.982,-70.862
0.196,-0.138,1.591,-53.650,-61.401,-59.326
0.158,-0.051,1.490,-61.218,-94.238,-46.143
0.111,-0.003,1.412,-66.040,-113.525,-39.917
0.056,0.028,1.306,-70.679,-118.408,-38.086
0.067,0.022,1.205,-75.684,-113.525,-40.405
0.090,0.036,1.066,-83.252,-107.117,-44.983
0.093,0.052,0.907,-89.844,-103.210,-48.157
0.108,0.047,0.757,-91.064,-98.877,-49.316
0.143,0.041,0.609,-90.515,-93.750,-51.025
0.167,0.056,0.468,-90.820,-89.355,-51.819
0.174,0.078,0.334,-88.867,-85.571,-49.561
0.177,0.099,0.218,-83.557,-80.139,-45.044
0.176,0.116,0.120,-75.684,-73.547,-39.307
0.168,0.134,0.017,-66.711,-65.674,-33.813
0.164,0.156,-0.063,-56.824,-56.213,-28.198
0.161,0.170,-0.131,-46.143,-45.288,-23.071
0.157,0.176,-0.219,-36.377,-32.349,-17.883
0.173,0.164,-0.319,-27.283,-16.968,-12.878
0.164,0.137,-0.431,-17.395,0.793,-7.568
0.156,0.098,-0.509,-5.249,22.034,-2.563
0.183,0.071,-0.559,8.972,48.218,1.465
0.219,0.033,-0.566,26.978,75.623,5.859
0.267,-0.010,-0.510,49.194,100.769,11.230
0.370,-0.009,-0.384,73.730,120.422,16.846
0.474,-0.003,-0.233,101.196,128.296,26.672
0.495,-0.055,0.001,132.751,119.446,45.959
0.401,-0.113,0.311,162.964,96.863,70.129
0.222,-0.183,0.662,186.218,69.397,92.346
-0.055,-0.258,1.121,203.186,45.532,109.314
-0.288,-0.295,1.657,209.106,33.875,115.784
-0.441,-0.270,2.191,198.730,36.255,112.427
-0.508,-0.211,2.664,175.720,44.556,100.769
-0.568,-0.171,3.047,142.944,48.340,85.632
-0.694,-0.196,3.299,101.929,45.837,69.702
-0.802,-0.227,3.348,52.979,41.077,50.232
-0.876,-0.271,3.232,6.165,33.875,26.184
-0.913,-0.335,3.062,-27.832,22.339,2.136
-0.874,-0.366,2.856,-51.208,7.996,-20.325
-0.739,-0.393,2.635,-67.017,-5.127,-41.870
-0.432,-0.368,2.405,-79.590,-20.874,-59.265
-0.170,-0.295,2.128,-89.783,-41.077,-65.002
0.070,-0.276,1.955,-90.515,-60.974,-64.941
0.180,-0.193,1.770,-96.619,-83.984,-59.753
0.216,-0.134,1.590,-103.516,-101.868,-50.659
0.262,-0.112,1.487,-108.704,-111.572,-43.945
0.201,-0.048,1.312,-119.934,-120.911,-37.048
0.119,-0.034,1.139,-128.052,-126.099,-30.090
0.074,-0.048,0.972,-131.104,-125.305,-29.724
0.061,-0.062,0.754,-135.681,-122.864,-33.569
0.100,-0.068,0.493,-138.184,-119.446,-37.659
0.173,-0.065,0.226,-135.864,-113.770,-42.725
0.256,-0.038,-0.027,-130.371,-104.980,-48.645
0.310,0.004,-0.265,-123.779,-93.628,-49.988
0.355,0.050,-0.496,-112.793,-77.515,-46.021
0.375,0.084,-0.661,-94.666,-57.983,-37.659
0.342,0.102,-0.770,-72.266,-39.185,-27.161
0.274,0.102,-0.833,-48.157,-20.203,-15.076
0.166,0.062,-0.853,-25.574,-0.305,-5.371
0.081,0.025,-0.833,-6.775,24.719,-1.831
0.090,0.022,-0.817,8.667,55.054,-2.808
0.165,0.013,-0.785,23.926,83.862,-3.418
0.256,0.039,-0.681,42.969,105.042,-1.709
0.352,0.056,-0.544,66.528,116.577,4.089
0.438,0.063,-0.360,92.407,115.540,16.296
0.418,0.073,-0.118,118.042,101.501,34.851
0.342,0.036,0.187,138.184,84.778,54.565
0.260,0.033,0.481,144.470,74.219,69.397
0.199,0.012,0.714,140.869,73.792,78.003
0.156,-0.041,0.971,135.681,82.581,81.482
0.117,-0.092,1.243,130.554,94.543,81.482
0.094,-0.128,1.533,126.831,104.431,81.299
0.037,-0.135,1.903,128.479,106.567,83.923
-0.144,-0.131,2.361,132.080,98.083,88.745
-0.397,-0.138,2.811,129.944,81.787,91.003
-0.672,-0.140,3.143,114.380,60.669,86.182
-0.860,-0.149,3.343,86.975,39.856,72.693
-0.923,-0.140,3.409,51.575,22.400,50.842
-0.856,-0.135,3.319,12.329,8.667,24.353
-0.704,-0.136,3.098,-24.719,-2.197,-0.916
-0.556,-0.155,2.826,-55.054,-11.353,-21.851
-0.385,-0.176,2.541,-77.637,-17.883,-38.696
-0.207,-0.176,2.251,-94.604,-23.376,-51.025
-0.062,-0.164,1.972,-106.323,-31.494,-57.373
0.081,-0.141,1.711,-113.281,-41.260,-58.777
0.220,-0.106,1.514,-117.004,-53.894,-54.749
0.287,-0.043,1.337,-122.192,-71.167,-45.044
0.290,0.012,1.187,-128.052,-88.501,-32.776
0.276,0.035,1.073,-133.850,-100.769,-22.400
0.226,0.074,0.939,-142.212,-109.314,-15.869
0.120,0.103,0.752,-150.208,-112.122,-10.742
0.087,0.049,0.591,-150.757,-105.347,-10.803
0.072,0.029,0.388,-151.123,-97.839,-16.357
0.063,0.029,0.169,-148.804,-92.896,-21.057
0.082,0.028,-0.042,-138.977,-86.060,-24.414
0.128,0.042,-0.217,-124.756,-76.477,-28.015
0.172,0.077,-0.374,-109.192,-66.101,-29.175
0.216,0.106,-0.493,-90.881,-55.908,-26.123
0.247,0.130,-0.582,-70.862,-45.898,-19.653
0.240,0.143,-0.647,-51.636,-34.668,-11.536
0.209,0.129,-0.708,-32.776,-19.592,-4.517
0.181,0.089,-0.777,-15.381,-0.488,1.038
0.144,0.039,-0.814,2.747,22.339,5.798
0.124,-0.004,-0.793,22.644,48.096,8.667
0.171,-0.033,-0.739,44.006,75.378,9.460
0.221,-0.050,-0.652,67.444,98.145,11.414
0.273,-0.064,-0.469,92.529,114.197,15.381
0.347,-0.028,-0.203,117.432,123.352,20.996
0.378,0.006,0.091,139.099,122.437,31.311
0.314,-0.009,0.394,156.006,111.389,45.471
0.200,-0.054,0.690,165.466,97.290,59.448
0.051,-0.082,0.990,169.495,86.853,69.031
-0.020,-0.118,1.333,171.082,84.229,71.838
0.001,-0.096,1.674,168.884,88.013,69.275
0.013,-0.037,2.071,167.236,88.196,67.078
-0.079,0.030,2.595,166.931,77.393,69.092
-0.335,0.058,3.138,158.630,55.664,74.768
-0.672,0.054,3.538,131.775,32.837,75.500
-0.936,0.047,3.722,87.463,16.174,61.768
-1.017,0.013,3.654,33.813,6.042,32.227
-0.917,-0.022,3.413,-15.808,-2.319,-1.038
-0.744,-0.039,3.104,-52.795,-14.526,-28.015
-0.528,-0.062,2.788,-76.111,-31.006,-48.157
-0.314,-0.066,2.501,-90.759,-50.232,-61.157
-0.134,-0.052,2.209,-101.135,-68.481,-67.810
0.020,-0.031,1.950,-108.337,-80.078,-70.679
0.192,0.015,1.717,-114.624,-84.473,-71.533
0.419,0.010,1.546,-121.216,-88.806,-67.383
0.530,0.077,1.333,-134.583,-106.506,-51.697
0.461,0.129,1.127,-145.935,-128.174,-27.222
0.323,0.108,0.999,-148.804,-138.733,-10.986
0.200,0.073,0.818,-154.907,-135.864,-10.864
0.133,0.048,0.566,-162.964,-124.329,-16.724
0.133,0.026,0.315,-164.185,-109.558,-22.400
0.153,0.020,0.097,-157.776,-97.839,-26.550
0.167,0.034,-0.090,-146.545,-89.783,-28.442
0.176,0.067,-0.267,-131.958,-80.872,-28.381
0.194,0.091,-0.428,-115.356,-68.909,-27.161
0.207,0.102,-0.573,-97.107,-53.223,-25.208
0.209,0.107,-0.707,-78.064,-35.828,-22.034
0.179,0.083,-0.826,-58.533,-18.555,-17.334
0.126,0.040,-0.901,-38.879,1.038,-12.756
0.099,0.010,-0.929,-20.325,25.330,-10.864
0.118,-0.016,-0.956,-2.197,51.331,-10.864
0.143,-0.041,-0.959,18.066,73.608,-9.216
0.165,-0.073,-0.879,43.091,92.834,-6.042
0.208,-0.092,-0.736,68.665,109.985,-3.296
0.347,-0.047,-0.562,93.933,121.826,-0.854
0.462,-0.033,-0.395,121.094,121.582,8.301
0.472,-0.035,-0.146,150.696,105.652,26.855
0.380,-0.069,0.163,177.673,83.008,48.706
0.284,-0.060,0.489,195.007,67.261,66.284
0.184,-0.063,0.831,204.712,63.721,77.393
0.111,-0.077,1.196,209.167,71.716,80.994
0.106,-0.028,1.618,209.167,83.984,80.322
0.108,0.024,2.082,206.421,92.468,80.566
0.039,0.105,2.618,198.547,90.759,83.801
-0.185,0.193,3.134,181.274,78.308,87.646
-0.513,0.214,3.541,153.137,58.228,88.379
-0.830,0.203,3.755,113.037,36.499,81.116
-1.021,0.137,3.804,65.613,17.578,61.707
-1.001,0.094,3.683,14.771,2.808,31.494
-0.811,0.064,3.419,-31.860,-8.789,0.427
-0.599,0.025,3.093,-68.054,-21.301,-23.560
-0.382,-0.030,2.736,-93.628,-32.166,-41.504
-0.174,-0.062,2.397,-109.497,-41.565,-53.223
-0.010,-0.084,2.069,-118.408,-51.086,-58.594
0.140,-0.086,1.784,-123.474,-60.608,-59.570
0.282,-0.047,1.510,-127.014,-69.519,-56.213
0.419,-0.022,1.296,-129.028,-79.956,-46.448
0.517,0.014,1.156,-133.972,-97.961,-31.372
0.381,0.105,0.934,-143.921,-123.413,-9.399
0.192,0.066,0.779,-145.569,-135.437,6.714
0.049,0.030,0.610,-146.545,-130.676,5.188
0.005,-0.006,0.369,-152.222,-117.920,-5.127
0.030,-0.033,0.092,-154.419,-103.699,-15.076
0.078,-0.035,-0.161,-147.766,-94.299,-21.606
0.111,-0.019,-0.376,-133.606,-88.989,-25.024
0.136,0.013,-0.564,-114.136,-83.191,-25.146
0.174,0.041,-0.717,-90.271,-73.120,-23.804
0.206,0.064,-0.836,-65.125,-58.228,-20.935
0.207,0.056,-0.923,-40.100,-40.161,-16.785
0.156,0.017,-0.969,-17.517,-17.822,-12.512
0.111,-0.003,-0.984,1.770,9.888,-10.193
0.163,-0.011,-0.942,20.874,42.236,-11.292
0.213,-0.009,-0.867,41.199,68.909,-11.108
0.281,0.008,-0.742,65.125,85.266,-7.080
0.328,0.015,-0.616,91.492,89.355,1.648
0.298,-0.015,-0.422,119.202,83.191,15.808
0.248,-0.013,-0.167,142.517,74.829,29.968
0.229,0.021,0.104,157.654,72.388,40.039
0.240,0.042,0.365,165.222,77.576,45.776
0.281,0.043,0.580,166.992,86.426,48.645
0.335,0.037,0.786,167.480,94.116,52.368
0.332,0.020,1.030,173.157,96.130,59.326
0.236,-0.023,1.382,186.829,90.759,69.153
0.087,-0.036,1.848,203.491,78.735,80.627
-0.149,-0.038,2.378,214.722,60.547,91.553
-0.451,-0.038,2.977,215.149,39.429,99.792
-0.760,-0.002,3.561,196.594,19.470,100.159
-1.018,0.073,3.896,151.306,4.761,85.938
-1.109,0.058,3.978,89.172,-0.488,57.129
-1.044,0.015,3.779,22.705,-3.052,19.836
-0.930,-0.050,3.404,-34.973,-11.902,-13.733
-0.796,-0.118,3.021,-71.960,-28.381,-38.086
-0.596,-0.166,2.651,-92.346,-44.434,-57.373
-0.363,-0.181,2.319,-102.539,-59.814,-71.167
-0.139,-0.150,2.008,-106.995,-73.853,-78.796
0.073,-0.114,1.732,-107.666,-85.022,-81.238
0.251,-0.048,1.485,-107.117,-94.238,-77.148
0.448,-0.001,1.325,-106.445,-103.088,-65.796
0.610,0.085,1.218,-112.732,-120.667,-48.767
0.455,0.185,1.011,-127.563,-147.705,-22.095
0.247,0.164,0.844,-133.118,-158.325,-2.808
0.120,0.120,0.650,-138.428,-147.522,-4.089
0.058,0.089,0.372,-147.156,-128.235,-14.343
0.104,0.063,0.087,-149.170,-107.178,-22.217
0.171,0.062,-0.159,-141.174,-91.431,-26.428
0.199,0.077,-0.353,-125.366,-83.557,-26.550
0.199,0.099,-0.503,-104.858,-76.721,-23.010
0.205,0.120,-0.622,-81.726,-66.956,-17.395
0.196,0.146,-0.702,-58.350,-53.223,-11.780
0.177,0.129,-0.754,-37.109,-35.034,-7.202
0.145,0.102,-0.808,-20.691,-12.634,-4.333
0.136,0.078,-0.855,-6.409,12.695,-3.235
0.175,0.051,-0.858,9.766,38.574,-3.052
0.194,0.035,-0.818,27.710,59.814,-0.610
0.214,0.009,-0.720,48.279,76.660,4.761
0.274,0.012,-0.574,68.970,88.989,10.315
0.312,0.025,-0.426,89.417,92.896,18.311
0.320,0.014,-0.225,111.389,89.294,30.273
0.277,0.001,0.031,131.836,82.947,43.457
0.216,-0.015,0.284,145.691,79.346,55.176
0.186,-0.027,0.543,153.381,81.848,63.599
0.154,-0.027,0.842,159.241,87.219,69.885
0.116,-0.002,1.198,165.894,90.088,75.867
-0.009,-0.004,1.636,174.316,85.571,83.923
-0.207,-0.004,2.115,179.749,75.134,93.201
-0.456,0.000,2.639,177.673,61.707,100.159
-0.748,0.031,3.120,161.987,45.471,98.694
-1.020,0.029,3.436,130.249,29.663,86.914
-1.180,0.001,3.540,86.914,16.235,65.491
-1.186,-0.023,3.456,39.063,4.395,37.292
-1.061,-0.057,3.236,-3.235,-7.263,9.216
-0.932,-0.106,2.970,-35.095,-22.034,-13.123
-0.776,-0.140,2.696,-57.129,-37.476,-31.799
-0.603,-0.132,2.427,-71.777,-51.453,-48.462
-0.404,-0.142,2.213,-79.346,-63.049,-59.937
-0.237,-0.123,1.984,-86.792,-73.669,-66.956
-0.084,-0.076,1.747,-95.520,-82.092,-70.313
0.064,-0.050,1.534,-103.027,-87.341,-69.885
0.213,-0.013,1.326,-112.122,-94.238,-62.988
0.279,0.044,1.120,-123.535,-106.934,-50.720
0.243,0.071,0.952,-132.019,-120.850,-36.743
0.158,0.069,0.778,-138.672,-129.944,-26.978
0.063,0.085,0.546,-145.447,-131.287,-22.766
0.024,0.079,0.309,-145.630,-121.643,-25.391
0.066,0.066,0.097,-140.503,-105.164,-33.142
0.123,0.094,-0.143,-134.033,-90.454,-39.795
0.172,0.135,-0.384,-121.826,-77.759,-40.466
0.255,0.160,-0.583,-100.342,-62.683,-36.926
0.319,0.174,-0.715,-75.195,-47.974,-29.480
0.311,0.186,-0.782,-52.002,-34.729,-18.921
0.246,0.193,-0.794,-32.227,-17.761,-8.484
0.196,0.190,-0.778,-16.235,8.423,-2.869
0.186,0.171,-0.759,-2.808,40.649,-1.404
0.228,0.155,-0.725,11.719,70.923,-0.916
0.287,0.143,-0.646,29.846,91.797,2.197
0.291,0.130,-0.511,50.537,99.976,10.315
0.277,0.103,-0.360,71.655,99.548,22.339
0.238,0.075,-0.192,90.759,94.604,34.912
0.174,0.053,0.017,106.689,90.088,45.898
0.134,0.040,0.247,118.103,91.003,53.589
0.117,0.035,0.464,122.986,97.412,57.007
0.108,0.019,0.649,123.718,105.774,58.716
0.111,0.002,0.838,124.268,112.793,59.753
0.094,-0.008,1.034,127.869,114.197,61.584
0.012,-0.046,1.301,137.573,106.812,67.932
-0.128,-0.085,1.627,150.269,92.590,78.003
-0.310,-0.110,2.003,161.316,74.341,87.280
-0.534,-0.108,2.451,168.091,54.626,92.529
-0.775,-0.083,2.921,164.978,34.546,91.919
-0.991,-0.043,3.356,147.217,16.968,83.069
-1.149,0.003,3.650,111.206,3.357,64.819
-1.192,0.050,3.695,59.875,-6.287,37.537
-1.089,0.010,3.533,5.676,-14.160,6.409
-0.972,-0.042,3.210,-42.847,-24.353,-21.606
-0.822,-0.105,2.839,-78.918,-35.217,-45.837
-0.596,-0.165,2.457,-102.844,-43.396,-66.956
-0.383,-0.191,2.064,-117.615,-52.429,-81.665
-0.135,-0.164,1.749,-121.704,-60.608,-89.844
0.104,-0.112,1.505,-120.178,-71.716,-90.332
0.253,-0.049,1.311,-119.202,-87.830,-79.651
0.373,0.015,1.224,-120.483,-107.422,-62.805
0.275,0.136,1.092,-127.686,-130.432,-44.434
0.097,0.135,0.993,-132.141,-142.395,-30.823
-0.026,0.113,0.831,-137.878,-138.306,-29.846
-0.063,0.080,0.635,-146.912,-126.587,-36.438
-0.058,0.063,0.420,-153.198,-115.784,-43.518
0.003,0.050,0.193,-154.480,-107.727,-49.622
0.084,0.054,-0.048,-151.306,-102.417,-53.894
0.153,0.078,-0.290,-143.005,-97.473,-54.810
0.234,0.105,-0.513,-128.967,-87.585,-52.979
0.329,0.130,-0.717,-111.450,-71.777,-49.500
0.406,0.158,-0.892,-92.102,-53.467,-42.908
0.439,0.177,-1.027,-69.397,-33.447,-32.959
0.419,0.158,-1.117,-44.312,-10.193,-20.813
0.338,0.094,-1.152,-19.775,17.639,-8.972
0.278,0.046,-1.113,2.808,51.880,-1.892
0.280,0.020,-1.029,24.536,85.754,2.075
0.297,-0.005,-0.887,49.133,112.000,6.958
0.347,0.014,-0.662,76.721,126.099,13.245
0.391,0.043,-0.408,105.896,126.343,24.048
0.347,0.023,-0.128,133.728,113.159,41.748
0.262,0.031,0.165,154.236,94.788,60.364
0.155,0.025,0.463,166.382,82.642,75.439
0.094,0.056,0.798,171.753,80.505,83.557
0.067,0.094,1.105,172.241,87.585,85.449
0.024,0.102,1.448,171.631,97.351,84.656
-0.079,0.135,1.901,171.509,102.844,85.083
-0.243,0.189,2.402,168.091,100.525,88.379
-0.467,0.261,2.911,156.738,88.867,92.224
-0.791,0.255,3.301,134.277,70.679,91.248
-1.099,0.204,3.487,99.365,48.706,82.275
-1.284,0.159,3.507,57.983,26.917,63.416
-1.271,0.126,3.417,17.578,9.460,34.790
-1.090,0.119,3.236,-17.578,-5.432,4.700
-0.896,0.096,2.995,-45.227,-22.949,-18.005
-0.702,0.073,2.695,-65.979,-42.236,-33.081
-0.544,0.042,2.444,-78.491,-57.678,-44.128
-0.362,0.035,2.196,-86.975,-65.796,-54.932
-0.194,0.037,1.974,-95.215,-71.777,-62.561
-0.046,0.053,1.713,-104.614,-77.576,-67.078
0.087,0.068,1.454,-112.915,-83.496,-66.528
0.201,0.096,1.258,-118.347,-90.454,-60.181
0.240,0.112,1.083,-127.197,-102.356,-48.523
0.195,0.118,0.901,-139.771,-117.859,-35.156
0.103,0.101,0.673,-151.611,-129.883,-25.513
-0.002,0.051,0.395,-157.227,-134.521,-22.705
-0.026,0.011,0.117,-153.748,-131.531,-26.306
0.058,-0.006,-0.107,-142.822,-123.596,-33.142
0.128,0.058,-0.341,-128.906,-116.577,-37.354
0.253,0.117,-0.519,-108.826,-102.844,-38.330
0.375,0.167,-0.617,-84.717,-84.412,-35.522
0.422,0.207,-0.691,-64.514,-68.176,-28.809
0.377,0.233,-0.782,-46.021,-52.124,-17.761
0.299,0.186,-0.841,-24.658,-30.518,-6.042
0.185,0.108,-0.879,-4.211,-5.859,2.380
0.108,0.058,-0.872,13.489,21.973,5.676
0.089,0.033,-0.834,30.518,52.673,4.211
0.131,0.005,-0.727,48.645,81.543,2.258
0.205,0.051,-0.589,66.772,101.685,2.197
0.286,0.067,-0.442,87.158,110.962,5.554
0.326,0.074,-0.276,109.863,108.093,15.991
0.295,0.095,-0.054,132.019,96.619,32.410
0.226,0.100,0.224,149.231,84.595,47.668
0.164,0.130,0.485,156.921,77.881,57.800
0.138,0.146,0.699,157.471,78.064,63.904
0.110,0.163,0.965,155.151,84.656,66.895
0.067,0.185,1.261,151.367,94.849,68.176
-0.006,0.195,1.589,147.827,104.126,70.313
-0.136,0.205,1.954,144.775,105.835,74.585
-0.358,0.202,2.341,142.578,96.619,79.224
-0.648,0.181,2.728,137.817,76.599,82.642
-0.968,0.141,3.040,124.695,49.438,81.482
-1.194,0.107,3.226,100.769,24.475,71.228
-1.273,0.099,3.266,66.956,6.897,49.377
-1.176,0.092,3.156,30.640,-3.723,19.836
-1.004,0.086,2.976,-0.427,-13.489,-6.165
-0.863,0.080,2.776,-23.315,-26.611,-24.780
-0.728,0.050,2.527,-40.955,-38.757,-40.100
-0.583,0.017,2.285,-53.772,-48.889,-53.650
-0.425,0.010,2.050,-63.477,-57.434,-64.392
-0.286,0.005,1.811,-71.472,-64.636,-71.777
-0.125,0.011,1.584,-78.308,-70.007,-76.843
0.024,0.045,1.348,-85.876,-74.463,-78.064
0.213,0.057,1.200,-92.773,-81.726,-73.242
0.286,0.133,1.059,-103.821,-100.098,-59.937
0.181,0.206,0.893,-114.258,-123.047,-41.077
0.072,0.165,0.755,-115.784,-131.592,-30.273
0.018,0.131,0.601,-118.225,-127.747,-32.227
0.026,0.143,0.428,-123.657,-119.202,-38.452
0.093,0.162,0.270,-125.488,-107.849,-43.884
0.156,0.198,0.114,-124.390,-95.947,-47.363
0.192,0.240,-0.025,-121.460,-82.397,-47.913
0.204,0.264,-0.163,-116.089,-65.552,-46.692
0.200,0.250,-0.292,-109.680,-45.959,-44.495
0.200,0.231,-0.432,-104.614,-25.391,-41.382
0.202,0.200,-0.581,-98.633,-5.737,-36.743
0.185,0.152,-0.732,-88.623,13.672,-31.311
0.157,0.097,-0.847,-74.402,34.851,-25.940
0.134,0.061,-0.901,-55.420,57.678,-22.095
0.169,0.039,-0.910,-32.227,80.322,-18.066
0.223,0.042,-0.859,-6.042,99.365,-12.207
0.272,0.066,-0.739,22.766,112.488,-3.967
0.286,0.066,-0.570,52.979,121.399,5.249
0.322,0.058,-0.382,80.200,128.479,14.038
0.389,0.097,-0.215,104.675,129.089,23.132
0.402,0.113,0.003,131.592,117.859,38.513
0.304,0.094,0.287,158.020,100.220,58.716
0.165,0.076,0.556,176.514,86.487,74.463
0.081,0.100,0.854,189.880,81.726,82.031
0.007,0.154,1.268,205.811,79.224,85.632
-0.105,0.204,1.855,221.191,73.120,91.248
-0.279,0.309,2.513,222.534,63.110,97.778
-0.526,0.437,3.134,203.491,52.063,99.487
-0.810,0.474,3.571,164.062,43.579,92.163
-1.048,0.436,3.705,106.262,38.452,74.463
-1.144,0.350,3.577,43.213,35.767,47.546
-1.107,0.229,3.300,-9.827,30.457,15.991
-1.000,0.147,2.992,-47.241,20.203,-12.268
-0.798,0.056,2.632,-70.496,6.409,-34.180
-0.610,0.016,2.329,-80.688,-11.658,-47.058
-0.441,0.016,2.112,-80.322,-31.555,-52.429
-0.294,0.013,1.939,-77.515,-49.622,-54.199
-0.161,0.033,1.768,-77.637,-64.575,-54.871
0.005,0.059,1.608,-80.322,-74.524,-55.237
0.142,0.101,1.453,-88.257,-83.923,-51.392
0.230,0.147,1.301,-100.159,-95.032,-42.542
0.230,0.185,1.138,-113.281,-107.300,-31.799
0.143,0.198,0.981,-124.146,-118.286,-23.132
0.039,0.172,0.781,-131.775,-124.084,-18.555
-0.005,0.129,0.541,-136.047,-122.742,-20.813
0.034,0.107,0.304,-135.925,-116.150,-28.137
0.107,0.122,0.045,-131.287,-109.131,-34.546
0.191,0.167,-0.226,-120.239,-99.548,-36.682
0.294,0.183,-0.410,-100.464,-85.754,-34.790
0.356,0.207,-0.533,-78.369,-73.608,-29.114
0.352,0.238,-0.625,-57.312,-63.721,-19.836
0.303,0.244,-0.689,-35.339,-53.528,-7.812
0.205,0.199,-0.735,-12.817,-39.063,2.808
0.107,0.135,-0.762,7.263,-19.470,9.216
0.055,0.095,-0.762,23.437,4.517,9.460
0.082,0.074,-0.750,38.086,31.128,6.348
0.127,0.067,-0.698,53.650,55.908,5.127
0.181,0.082,-0.588,70.129,76.904,6.165
0.251,0.105,-0.448,86.853,93.872,8.789
0.302,0.114,-0.296,104.309,102.783,15.137
0.290,0.107,-0.096,122.925,102.234,25.696
0.241,0.089,0.136,138.916,95.520,37.720
0.175,0.083,0.370,150.146,86.853,48.828
0.073,0.072,0.631,158.203,79.956,57.739
0.030,0.090,0.928,164.062,78.979,62.195
0.009,0.108,1.259,168.457,82.458,65.247
-0.043,0.157,1.661,171.082,83.679,68.542
-0.217,0.183,2.125,169.678,80.322,72.937
-0.463,0.197,2.575,159.058,73.547,75.439
-0.699,0.214,2.911,136.047,64.941,70.923
-0.897,0.199,3.106,105.103,53.345,59.143
-1.018,0.177,3.164,69.885,39.856,41.748
-1.034,0.148,3.087,35.156,23.437,22.034
-0.967,0.130,2.938,5.066,4.883,2.991
-0.856,0.124,2.779,-18.005,-13.000,-13.123
-0.718,0.107,2.597,-36.621,-28.809,-27.710
-0.575,0.130,2.418,-53.223,-40.710,-40.771
-0.420,0.124,2.244,-66.956,-48.279,-52.490
-0.272,0.110,2.040,-80.261,-54.077,-61.401
-0.133,0.112,1.802,-94.910,-60.852,-66.101
0.007,0.122,1.564,-106.384,-67.871,-66.589
0.147,0.129,1.356,-113.708,-76.843,-60.303
0.220,0.152,1.197,-121.765,-92.407,-48.218
0.167,0.205,0.990,-131.775,-111.450,-32.410
0.111,0.186,0.777,-136.047,-119.873,-20.813
0.094,0.158,0.555,-137.634,-115.967,-21.057
0.114,0.148,0.307,-140.198,-106.201,-27.527
0.165,0.147,0.064,-137.512,-94.788,-31.494
0.216,0.159,-0.145,-127.258,-84.656,-31.860
0.246,0.167,-0.325,-111.267,-75.134,-29.663
0.236,0.174,-0.474,-91.736,-65.002,-24.292
0.221,0.174,-0.583,-69.580,-52.246,-18.799
0.206,0.160,-0.665,-47.241,-36.072,-13.489
0.165,0.122,-0.735,-27.710,-17.334,-8.484
0.128,0.074,-0.791,-11.414,4.761,-5.676
0.120,0.050,-0.832,3.052,32.043,-5.493
0.148,0.025,-0.849,20.874,61.890,-6.897
0.212,-0.038,-0.773,41.931,89.966,-7.996
0.308,0.022,-0.666,63.049,109.619,-6.836
0.407,0.026,-0.578,89.233,116.272,0.122
0.414,-0.004,-0.397,121.887,107.178,17.212
0.319,0.009,-0.093,153.442,89.233,38.330
0.234,0.020,0.217,174.561,74.158,55.054
0.174,0.058,0.522,183.777,66.162,66.650
0.113,0.109,0.852,186.829,65.674,72.388
0.086,0.144,1.205,186.340,69.824,73.059
0.069,0.209,1.633,183.960,73.547,74.585
-0.016,0.284,2.106,177.612,71.228,80.444
-0.216,0.334,2.644,164.124,66.284,87.769
-0.527,0.362,3.140,138.000,63.354,89.233
-0.828,0.362,3.453,98.389,62.012,78.308
-1.057,0.298,3.547,52.124,56.091,57.983
-1.174,0.203,3.462,7.935,41.199,34.241
-1.163,0.113,3.246,-27.588,19.653,10.803
-1.028,0.050,2.974,-52.795,-3.723,-9.888
-0.808,0.016,2.693,-69.397,-25.513,-27.954
-0.562,0.011,2.433,-79.102,-44.250,-41.870
-0.333,0.016,2.214,-83.679,-59.570,-49.927
-0.177,0.029,2.005,-87.952,-73.303,-52.612
-0.039,0.015,1.792,-94.910,-82.031,-53.711
0.132,0.017,1.553,-105.347,-87.280,-54.260
0.283,0.061,1.317,-118.103,-96.863,-47.424
0.277,0.105,1.116,-127.869,-113.220,-32.349
0.149,0.107,0.903,-133.972,-127.441,-17.639
0.043,0.060,0.673,-136.047,-130.432,-13.550
0.002,0.032,0.424,-136.719,-126.526,-18.005
0.040,0.030,0.148,-133.911,-119.080,-24.048
0.170,0.030,-0.087,-124.268,-109.802,-30.212
0.261,0.090,-0.304,-112.915,-102.539,-34.485
0.319,0.153,-0.486,-98.511,-93.567,-33.447
0.354,0.189,-0.623,-78.308,-78.918,-27.649
0.346,0.198,-0.729,-56.824,-59.570,-20.813
0.285,0.171,-0.807,-36.743,-37.598,-14.160
0.204,0.110,-0.871,-19.775,-12.512,-9.338
0.131,0.069,-0.923,-5.920,14.771,-7.996
0.119,0.037,-0.938,9.583,44.434,-9.399
0.140,-0.008,-0.912,28.076,71.289,-10.376
0.155,-0.021,-0.830,48.157,93.445,-9.277
0.199,-0.018,-0.671,69.702,113.953,-8.301
0.323,-0.000,-0.496,90.942,129.456,-7.385
0.440,0.055,-0.281,113.770,132.324,-0.488
0.442,0.060,-0.051,139.221,119.385,17.639
0.312,0.005,0.214,163.147,97.168,41.382
0.156,-0.025,0.505,180.542,77.698,60.425
0.046,-0.030,0.815,192.505,69.092,72.021
0.036,0.001,1.220,202.209,71.106,78.003
-0.007,0.092,1.751,208.740,76.172,81.238
-0.149,0.136,2.352,207.764,78.064,84.290
-0.357,0.210,2.938,192.017,74.158,86.731
-0.675,0.224,3.349,160.034,64.209,85.876
-0.947,0.227,3.614,118.835,50.476,76.843
-1.131,0.193,3.692,71.533,33.264,57.495
-1.190,0.133,3.557,21.545,16.235,30.396
-1.081,0.080,3.282,-21.973,0.488,1.160
-0.919,0.031,2.974,-52.979,-15.442,-24.353
-0.701,0.002,2.631,-72.266,-31.677,-44.800
-0.441,0.005,2.361,-81.299,-46.570,-59.265
-0.224,-0.005,2.081,-86.182,-58.899,-68.665
-0.051,0.014,1.820,-87.280,-69.702,-71.838
0.096,0.046,1.638,-86.731,-79.102,-71.533
0.218,0.055,1.447,-90.637,-85.693,-67.383
0.366,0.101,1.314,-99.182,-94.971,-59.143
0.427,0.176,1.190,-112.122,-113.892,-42.786
0.297,0.243,1.054,-125.488,-135.986,-22.705
0.147,0.226,0.919,-134.338,-143.066,-12.451
0.085,0.182,0.736,-145.813,-133.667,-16.907
0.067,0.161,0.469,-159.912,-118.835,-26.794
0.112,0.138,0.201,-167.542,-101.624,-33.875
0.199,0.115,-0.053,-166.321,-84.961,-37.903
0.243,0.108,-0.317,-160.950,-73.547,-37.170
0.269,0.100,-0.584,-148.437,-64.270,-31.677
0.285,0.084,-0.818,-126.404,-53.772,-23.621
0.291,0.066,-0.986,-97.778,-41.748,-15.076
0.285,0.048,-1.094,-65.613,-28.931,-5.676
0.234,0.015,-1.140,-32.471,-15.015,4.578
0.176,-0.006,-1.111,-0.183,1.465,14.038
0.118,-0.032,-1.014,28.564,23.010,19.531
0.099,-0.049,-0.906,52.002,48.889,20.691
0.118,-0.038,-0.758,70.923,77.332,19.714
0.142,-0.020,-0.561,86.121,106.262,17.090
0.226,0.006,-0.389,97.412,132.751,12.390
0.333,0.043,-0.211,109.497,149.353,10.742
0.437,0.092,0.018,126.709,149.719,17.334
0.454,0.078,0.218,148.865,131.592,34.790
0.386,0.050,0.479,176.270,98.511,60.059
0.208,0.031,0.858,208.252,59.143,88.684
-0.055,0.047,1.448,234.619,29.358,114.197
-0.281,0.184,2.233,243.347,25.513,126.465
-0.481,0.346,3.022,226.013,42.908,122.559
-0.673,0.455,3.577,181.396,63.599,107.056
-0.867,0.423,3.834,121.582,70.862,86.670
-1.088,0.299,3.818,59.082,59.448,67.200
-1.234,0.186,3.611,2.625,37.354,46.631
-1.227,0.095,3.293,-39.917,14.709,20.691
-1.071,0.018,2.966,-65.735,-6.287,-6.042
-0.887,-0.027,2.667,-77.637,-27.588,-26.489
-0.639,-0.028,2.406,-81.909,-45.593,-42.175
-0.386,-0.010,2.183,-82.581,-59.937,-52.429
-0.161,0.013,1.967,-83.008,-71.533,-57.068
-0.028,0.026,1.750,-85.815,-81.482,-57.007
0.083,0.040,1.551,-90.698,-87.402,-55.481
0.163,0.069,1.369,-98.572,-90.942,-51.697
0.276,0.074,1.271,-108.826,-97.778,-45.227
0.219,0.158,1.085,-126.892,-115.540,-33.386
0.055,0.161,0.909,-138.733,-130.310,-21.301
-0.049,0.083,0.746,-144.104,-130.371,-21.301
-0.087,0.057,0.522,-153.931,-124.817,-30.334
-0.044,0.047,0.281,-159.668,-118.286,-39.124
0.062,0.043,0.048,-157.227,-110.840,-45.837
0.162,0.067,-0.222,-150.879,-105.408,-49.500
0.252,0.097,-0.472,-137.878,-97.595,-48.035
0.324,0.125,-0.713,-118.408,-84.229,-43.823
0.370,0.153,-0.877,-93.811,-66.589,-37.476
0.371,0.161,-0.974,-65.613,-47.607,-27.588
0.331,0.142,-1.028,-36.194,-29.968,-15.259
0.239,0.090,-1.056,-6.836,-13.306,-3.357
0.113,0.021,-1.024,20.325,5.798,4.761
0.027,-0.025,-0.942,43.274,30.945,6.531
0.041,-0.025,-0.832,62.561,59.814,4.150
0.116,0.001,-0.678,79.529,87.280,0.916
0.246,0.082,-0.501,95.825,111.450,-3.906
0.361,0.134,-0.284,117.859,121.887,-1.343
0.361,0.129,-0.065,140.320,115.723,15.747
0.312,0.140,0.163,153.564,105.530,33.997
0.277,0.214,0.419,160.217,101.685,44.861
0.252,0.251,0.684,166.382,101.563,53.894
0.195,0.275,1.018,171.814,100.647,64.758
0.083,0.321,1.399,172.424,98.450,73.547
-0.076,0.335,1.785,169.189,94.482,80.017
-0.278,0.328,2.157,162.109,87.341,85.754
-0.480,0.322,2.507,150.757,76.965,88.928
-0.728,0.323,2.896,136.292,62.866,87.952
-0.945,0.317,3.249,115.540,46.814,80.322
-1.083,0.319,3.473,84.106,29.846,65.857
-1.158,0.298,3.529,44.006,11.536,46.448
-1.139,0.252,3.428,1.526,-4.883,23.621
-1.034,0.168,3.166,-37.842,-19.409,-0.549
-0.926,0.089,2.844,-68.054,-34.119,-22.583
-0.763,0.016,2.510,-86.548,-44.495,-42.664
-0.516,-0.034,2.212,-96.375,-53.223,-58.655
-0.327,-0.019,1.919,-101.929,-65.491,-68.298
-0.137,-0.005,1.659,-101.929,-75.378,-72.266
0.103,0.033,1.451,-99.854,-80.322,-71.960
0.272,0.094,1.244,-102.173,-90.454,-63.232
0.345,0.154,1.092,-105.286,-106.323,-46.021
0.277,0.206,0.968,-109.619,-122.986,-27.771
0.152,0.201,0.793,-116.272,-131.592,-16.724
0.078,0.174,0.579,-122.070,-128.601,-15.930
0.059,0.162,0.312,-125.977,-120.239,-20.020
0.151,0.139,0.098,-123.230,-109.314,-25.330
0.233,0.169,-0.122,-117.859,-102.722,-28.015
0.268,0.218,-0.348,-110.168,-97.046,-26.611
0.304,0.230,-0.549,-94.666,-84.717,-22.217
0.309,0.217,-0.710,-74.341,-67.566,-16.785
0.305,0.193,-0.822,-53.589,-48.096,-11.536
0.275,0.161,-0.893,-33.142,-28.442,-5.005
0.245,0.118,-0.939,-14.038,-8.789,1.343
0.136,0.061,-0.974,3.357,11.841,6.226
0.093,-0.001,-0.944,21.729,38.940,6.714
0.091,-0.037,-0.867,39.490,67.993,4.761
0.080,-0.037,-0.736,55.847,92.041,3.357
0.122,-0.019,-0.522,74.890,112.305,2.930
0.208,0.033,-0.268,94.055,122.375,5.920
0.232,0.085,-0.010,111.816,117.126,16.785
0.159,0.094,0.266,126.404,101.440,31.799
0.047,0.120,0.539,133.789,85.571,42.908
-0.066,0.127,0.755,134.888,77.209,47.791
-0.109,0.123,0.953,132.996,78.369,46.753
-0.091,0.183,1.184,132.019,86.182,42.969
-0.067,0.246,1.514,135.254,94.177,41.626
-0.118,0.313,1.930,137.695,96.436,44.922
-0.252,0.392,2.344,134.216,88.745,50.720
-0.465,0.426,2.704,125.549,68.970,57.739
-0.735,0.417,2.994,111.694,40.588,62.378
-1.010,0.381,3.173,90.210,10.071,60.425
-1.191,0.349,3.276,62.805,-14.954,48.157
-1.218,0.348,3.298,31.250,-32.959,27.100
-1.087,0.350,3.225,-2.014,-45.715,2.991
-0.967,0.307,3.052,-33.630,-58.472,-18.616
-0.791,0.257,2.802,-62.256,-68.604,-38.818
-0.572,0.225,2.526,-86.304,-74.951,-56.702
-0.360,0.184,2.201,-105.164,-82.153,-69.580
-0.197,0.146,1.883,-117.920,-89.294,-74.585
-0.033,0.132,1.578,-125.610,-93.262,-73.914
0.125,0.143,1.291,-130.249,-96.191,-68.115
0.290,0.155,1.042,-131.653,-100.708,-56.458
0.316,0.182,0.812,-131.897,-110.840,-38.513
0.270,0.193,0.615,-130.676,-121.582,-21.423
0.194,0.194,0.391,-127.991,-124.023,-10.132
0.151,0.173,0.183,-123.169,-117.737,-6.592
0.138,0.166,-0.047,-116.577,-106.079,-8.301
0.183,0.142,-0.222,-107.239,-91.614,-10.803
0.199,0.163,-0.410,-98.328,-78.186,-11.353
0.190,0.171,-0.583,-87.402,-60.608,-10.010
0.182,0.140,-0.732,-71.838,-35.828,-9.338
0.177,0.095,-0.841,-55.786,-8.545,-10.620
0.171,0.063,-0.910,-40.405,16.602,-11.108
0.184,0.034,-0.945,-24.353,38.086,-10.071
0.161,-0.010,-0.953,-6.653,54.810,-6.165
0.117,-0.034,-0.926,12.695,67.505,-1.892
0.128,-0.051,-0.842,35.217,77.271,0.793
0.114,-0.090,-0.748,59.998,80.200,6.775
0.084,-0.098,-0.609,83.862,78.003,15.503
0.086,-0.097,-0.411,106.323,78.369,22.705
0.092,-0.024,-0.133,122.803,82.214,26.733
0.102,0.035,0.155,132.629,89.111,28.992
0.129,0.098,0.436,135.071,97.656,29.968
0.138,0.138,0.712,132.385,105.957,30.823
0.149,0.277,0.894,125.793,112.610,32.837
0.152,0.271,1.226,126.038,114.441,36.316
0.073,0.337,1.573,134.888,109.314,45.227
-0.074,0.393,1.968,141.479,93.994,58.105
-0.327,0.438,2.439,146.179,73.975,71.838
-0.609,0.492,2.915,140.991,57.007,79.651
-0.874,0.515,3.290,119.507,46.204,75.989
-1.037,0.498,3.461,82.458,39.917,59.998
-1.071,0.458,3.404,38.513,32.776,37.292
-1.031,0.384,3.221,0.549,19.043,15.930
-0.952,0.304,2.981,-26.855,-1.770,0.244
-0.871,0.194,2.692,-46.021,-23.560,-12.512
-0.706,0.121,2.385,-59.570,-40.649,-26.550
-0.507,0.071,2.107,-67.200,-52.917,-38.757
-0.304,0.053,1.874,-70.190,-63.110,-46.875
-0.137,0.046,1.636,-72.449,-72.632,-50.476
0.012,0.058,1.415,-74.463,-80.139,-50.720
0.144,0.077,1.222,-75.378,-86.731,-47.241
0.201,0.115,1.048,-77.026,-95.032,-39.063
0.202,0.122,0.944,-78.918,-104.431,-28.503
0.147,0.154,0.852,-84.045,-116.333,-18.921
-0.030,0.198,0.715,-90.576,-127.014,-10.559
-0.106,0.173,0.673,-90.210,-125.305,-10.803
-0.141,0.176,0.554,-93.811,-118.774,-19.775
-0.109,0.170,0.409,-99.304,-112.488,-27.954
-0.017,0.177,0.247,-101.685,-106.567,-34.973
0.028,0.209,0.050,-103.638,-101.868,-40.894
0.112,0.202,-0.152,-100.220,-90.881,-44.800
0.217,0.211,-0.387,-93.018,-75.439,-45.349
0.327,0.208,-0.610,-82.397,-60.303,-41.809
0.352,0.206,-0.802,-67.505,-45.593,-34.668
0.368,0.171,-0.957,-48.706,-27.771,-26.428
0.354,0.124,-1.098,-28.381,-6.958,-17.761
0.299,0.067,-1.164,-6.470,17.151,-9.399
0.241,0.011,-1.131,17.395,46.509,-4.089
0.214,-0.019,-1.053,40.649,77.332,-2.014
0.214,-0.016,-0.854,64.941,105.103,0.061
0.226,0.022,-0.574,89.355,126.160,1.587
0.298,0.057,-0.322,112.000,137.512,4.822
0.328,0.090,-0.060,136.047,133.301,16.357
0.290,0.112,0.282,160.950,117.371,34.546
0.194,0.154,0.654,180.969,98.206,51.941
0.048,0.190,1.079,195.435,82.153,67.810
-0.115,0.258,1.606,202.759,76.111,79.285
-0.280,0.323,2.148,196.106,80.872,82.825
-0.418,0.406,2.584,172.974,90.332,78.369
-0.564,0.456,2.921,142.395,95.154,70.251
-0.767,0.437,3.158,111.389,86.060,62.073
-1.000,0.400,3.275,79.163,61.096,55.298
-1.187,0.353,3.294,48.279,28.748,45.837
-1.254,0.304,3.230,19.043,-0.549,29.846
-1.157,0.290,3.092,-9.888,-22.095,8.301
-0.961,0.271,2.890,-36.255,-37.292,-14.099
-0.728,0.260,2.633,-57.922,-49.255,-32.898
-0.541,0.237,2.384,-73.242,-60.181,-45.532
-0.382,0.206,2.127,-83.496,-70.007,-53.955
-0.239,0.189,1.889,-90.820,-79.773,-57.373
-0.106,0.190,1.644,-96.619,-87.952,-58.411
0.044,0.176,1.403,-99.243,-94.971,-57.068
0.165,0.172,1.140,-101.990,-106.812,-48.462
0.244,0.177,0.955,-103.333,-122.131,-34.241
0.251,0.211,0.796,-105.408,-138.550,-20.508
0.132,0.242,0.615,-107.056,-151.794,-6.592
0.098,0.220,0.519,-101.074,-151.245,-1.892
0.067,0.227,0.364,-95.703,-148.804,-4.456
0.011,0.173,0.220,-89.417,-151.001,-4.944
-0.012,0.155,0.100,-80.383,-152.405,-4.883
0.031,0.170,-0.039,-72.388,-147.644,-8.057
0.151,0.199,-0.205,-66.589,-133.972,-14.343
0.299,0.237,-0.417,-62.195,-111.267,-20.813
0.417,0.253,-0.629,-56.641,-82.092,-23.926
0.477,0.238,-0.826,-45.654,-52.612,-20.447
0.507,0.212,-0.969,-27.466,-26.672,-10.986
0.421,0.158,-1.062,-3.418,-5.676,3.723
0.280,0.057,-1.071,25.513,17.090,17.944
0.195,-0.028,-0.992,52.124,45.715,25.146
0.141,-0.042,-0.893,73.547,74.219,27.344
0.135,-0.070,-0.714,96.375,102.173,29.846
0.131,-0.085,-0.500,116.699,126.648,33.325
0.170,-0.076,-0.188,132.629,148.132,33.264
0.300,0.094,0.212,144.836,161.316,30.090
0.336,0.157,0.547,157.166,154.419,37.231
0.236,0.146,0.874,164.124,127.563,56.885
0.008,0.142,1.165,158.142,95.947,76.538
-0.244,0.179,1.476,143.555,76.782,85.388
-0.445,0.188,1.772,127.747,75.989,81.726
-0.544,0.181,1.992,110.474,85.144,70.618
-0.642,0.197,2.252,97.595,90.881,59.753
-0.828,0.213,2.600,92.773,84.167,52.551
-1.055,0.220,2.941,87.341,64.758,49.988
-1.236,0.249,3.173,73.669,39.978,46.570
-1.318,0.261,3.281,52.368,16.479,35.278
-1.290,0.260,3.262,25.513,-3.662,16.907
-1.153,0.261,3.128,-2.808,-21.179,-2.625
-1.019,0.247,2.945,-27.222,-39.856,-19.165
-0.902,0.193,2.680,-47.302,-56.580,-33.508
-0.698,0.120,2.370,-64.148,-67.078,-48.523
-0.492,0.079,2.032,-78.308,-75.989,-59.570
-0.295,0.051,1.680,-86.975,-83.923,-65.125
-0.099,0.038,1.368,-89.172,-90.820,-65.491
0.053,0.062,1.097,-88.928,-98.755,-59.998
0.180,0.086,0.906,-87.280,-109.131,-49.194
0.175,0.121,0.706,-87.952,-124.878,-33.691
0.109,0.110,0.564,-87.891,-138.550,-19.958
0.007,0.135,0.378,-87.769,-144.287,-12.878
-0.028,0.103,0.224,-85.815,-140.076,-12.573
-0.009,0.118,0.055,-83.008,-130.310,-19.470
0.044,0.132,-0.120,-82.275,-117.737,-26.428
0.137,0.152,-0.255,-77.454,-103.577,-30.640
0.186,0.211,-0.409,-71.594,-90.881,-30.396
0.218,0.223,-0.566,-60.547,-72.815,-27.283
0.234,0.188,-0.736,-46.204,-48.828,-24.170
0.227,0.128,-0.857,-30.762,-23.132,-20.203
0.212,0.120,-0.886,-14.832,3.784,-15.747
0.270,0.151,-0.826,3.235,32.776,-12.756
0.315,0.172,-0.710,23.376,55.176,-6.165
0.241,0.155,-0.557,45.654,67.566,4.883
0.200,0.141,-0.404,65.491,75.989,15.808
0.165,0.116,-0.227,82.214,80.750,25.940
0.090,0.098,-0.064,93.628,80.872,36.072
0.045,0.096,0.146,101.501,83.252,43.579
0.010,0.128,0.360,104.248,90.515,47.180
-0.013,0.118,0.527,103.271,100.769,49.255
-0.022,0.097,0.658,100.769,111.023,50.964
-0.003,0.092,0.781,100.830,119.507,52.795
-0.028,0.081,0.980,108.887,121.216,57.861
-0.115,0.076,1.263,125.000,113.159,67.261
-0.305,0.097,1.725,145.569,94.482,80.383
-0.609,0.123,2.296,160.828,69.092,93.384
-0.992,0.129,2.827,158.386,43.213,99.365
-1.356,0.131,3.226,135.132,22.827,93.018
-1.557,0.123,3.403,95.276,10.437,71.228
-1.543,0.098,3.355,46.326,2.991,37.842
-1.353,0.097,3.151,0.366,-5.066,3.967
-1.166,0.064,2.890,-33.386,-19.043,-21.667
-0.993,0.018,2.600,-55.237,-36.987,-39.001
-0.818,-0.008,2.310,-68.237,-52.551,-52.368
-0.651,-0.046,2.053,-74.280,-64.453,-62.866
-0.463,-0.034,1.814,-76.904,-72.937,-70.251
-0.307,-0.018,1.600,-76.660,-80.627,-73.242
-0.147,-0.002,1.429,-74.524,-87.585,-72.754
-0.001,0.042,1.286,-74.524,-97.290,-67.139
0.049,0.081,1.136,-76.904,-112.732,-54.932
0.037,0.075,1.027,-80.627,-128.784,-43.152
-0.023,0.104,0.906,-88.623,-141.968,-35.156
-0.128,0.135,0.697,-97.656,-148.132,-31.433
-0.130,0.079,0.524,-99.426,-139.526,-36.682
-0.108,0.099,0.334,-101.501,-128.601,-47.302
-0.065,0.120,0.157,-102.234,-120.056,-53.955
0.018,0.126,-0.024,-97.595,-112.122,-56.030
0.112,0.161,-0.262,-90.576,-104.614,-55.420
0.204,0.201,-0.470,-79.346,-93.506,-52.063
0.288,0.229,-0.630,-64.514,-76.172,-46.997
0.350,0.260,-0.785,-50.537,-53.406,-41.199
0.371,0.254,-0.963,-36.316,-26.123,-33.569
0.348,0.195,-1.080,-19.348,6.348,-24.292
0.313,0.178,-1.097,-0.732,42.847,-15.625
0.334,0.142,-1.058,19.531,82.275,-9.338
0.349,0.123,-0.937,39.673,116.943,-2.563
0.365,0.157,-0.713,59.204,145.813,4.578
0.453,0.183,-0.488,77.209,169.312,10.803
0.556,0.242,-0.254,93.872,179.260,21.545
0.583,0.296,0.026,113.098,171.570,40.344
0.528,0.291,0.344,130.676,151.855,63.416
0.400,0.284,0.636,137.146,129.150,87.830
0.191,0.263,0.908,132.751,113.831,107.788
-0.022,0.219,1.145,123.413,112.732,116.516
-0.163,0.198,1.399,111.694,124.817,113.525
-0.232,0.225,1.670,101.929,140.259,105.164
-0.293,0.236,2.008,98.755,146.851,100.464
-0.402,0.228,2.367,98.755,138.672,100.525
-0.651,0.200,2.666,95.398,114.258,104.431
-0.962,0.123,2.910,89.966,80.994,108.459
-1.208,0.062,3.074,79.102,48.889,104.919
-1.337,0.039,3.146,58.167,25.208,88.684
-1.288,0.012,3.064,30.151,11.169,61.279
-1.118,-0.026,2.860,2.686,0.061,33.142
-0.954,-0.050,2.607,-18.555,-14.343,12.268
-0.810,-0.099,2.334,-33.020,-29.480,-2.380
-0.654,-0.141,2.006,-42.358,-41.565,-15.442
-0.472,-0.189,1.719,-44.617,-52.490,-25.696
-0.330,-0.198,1.462,-42.908,-64.453,-30.884
-0.193,-0.179,1.254,-40.527,-75.378,-33.020
-0.042,-0.139,1.071,-39.124,-83.984,-33.081
0.080,-0.082,0.939,-39.978,-95.154,-28.442
0.069,-0.008,0.829,-43.091,-110.779,-19.226
-0.032,0.040,0.748,-44.861,-121.948,-10.742
-0.129,0.058,0.683,-46.814,-121.399,-11.047
-0.180,0.064,0.583,-53.833,-113.525,-17.822
-0.185,0.084,0.445,-61.096,-104.309,-26.123
-0.145,0.090,0.327,-64.697,-97.168,-32.959
-0.107,0.126,0.174,-66.406,-92.285,-39.490
-0.057,0.130,0.003,-64.514,-85.083,-44.128
0.012,0.134,-0.143,-56.396,-75.500,-45.959
0.092,0.165,-0.249,-45.105,-64.697,-45.593
0.150,0.196,-0.336,-32.837,-51.697,-42.908
0.197,0.205,-0.390,-19.409,-35.278,-37.537
0.220,0.225,-0.416,-6.165,-15.869,-29.419
0.220,0.242,-0.394,7.751,7.324,-20.386
0.233,0.234,-0.315,21.729,34.485,-12.939
0.253,0.250,-0.246,32.227,60.669,-6.287
0.272,0.253,-0.163,42.297,82.092,1.587
0.303,0.247,-0.071,52.917,99.365,11.719
0.321,0.255,0.053,61.951,112.976,22.583
0.335,0.270,0.193,68.848,123.169,32.227
0.331,0.254,0.309,74.951,129.883,42.419
0.309,0.214,0.441,81.055,133.118,54.932
0.273,0.183,0.587,86.060,136.353,67.139
0.243,0.141,0.746,91.125,140.198,76.721
0.221,0.096,0.914,98.267,141.174,86.243
0.149,0.077,1.151,109.314,136.597,96.436
-0.033,0.017,1.487,123.352,125.488,108.398
-0.318,-0.034,1.879,132.019,110.840,117.981
-0.625,-0.079,2.245,130.188,95.581,118.958
-0.872,-0.121,2.534,117.310,83.618,109.741
-1.006,-0.131,2.728,94.543,73.303,91.858
-1.026,-0.137,2.818,66.467,62.256,68.298
-0.960,-0.139,2.800,36.011,48.828,43.945
-0.883,-0.136,2.692,9.033,31.860,23.376
-0.797,-0.172,2.547,-10.559,12.634,6.226
-0.728,-0.207,2.360,-23.804,-5.981,-7.324
-0.674,-0.244,2.181,-31.128,-22.644,-19.531
-0.574,-0.273,2.033,-33.508,-35.461,-31.921
-0.443,-0.245,1.848,-36.072,-46.936,-42.847
-0.265,-0.230,1.719,-37.476,-57.739,-51.575
-0.088,-0.175,1.586,-40.527,-71.899,-56.091
0.101,-0.079,1.486,-46.326,-90.820,-51.758
0.116,0.011,1.401,-52.612,-117.371,-38.391
-0.035,0.046,1.337,-59.387,-140.015,-25.024
-0.108,0.059,1.251,-66.467,-145.020,-25.757
-0.145,0.052,1.075,-77.148,-141.174,-34.912
-0.132,0.040,0.881,-83.984,-135.498,-45.166
-0.041,0.045,0.715,-86.121,-130.249,-54.443
-0.002,0.070,0.533,-86.731,-128.723,-59.509
0.019,0.093,0.363,-83.984,-127.197,-59.753
0.083,0.118,0.222,-76.843,-121.277,-58.594
0.141,0.161,0.097,-69.031,-112.732,-55.420
0.191,0.196,-0.012,-61.890,-101.807,-50.903
0.239,0.233,-0.128,-56.396,-87.830,-45.959
0.302,0.269,-0.252,-52.124,-69.397,-40.649
0.347,0.295,-0.379,-47.546,-47.546,-34.058
0.356,0.288,-0.503,-41.626,-23.682,-25.818
0.316,0.242,-0.614,-32.349,1.099,-15.320
0.252,0.190,-0.678,-20.569,28.198,-4.944
0.218,0.151,-0.690,-6.409,58.044,1.892
0.219,0.113,-0.683,9.888,87.463,6.775
0.202,0.068,-0.603,27.954,113.708,12.878
0.233,0.051,-0.462,46.387,137.024,16.846
0.326,0.065,-0.277,62.988,154.846,18.921
0.437,0.113,-0.042,81.360,161.194,26.245
0.439,0.106,0.213,101.868,151.550,45.044
0.331,0.049,0.525,119.995,133.179,68.542
0.207,0.018,0.823,129.456,117.615,87.402
0.063,-0.051,1.109,133.179,110.718,100.098
-0.023,-0.088,1.436,134.155,114.563,106.628
-0.114,-0.076,1.826,133.606,123.169,106.873
-0.263,-0.076,2.282,132.751,126.465,102.905
-0.489,-0.079,2.730,126.953,116.089,99.060
-0.822,-0.112,3.075,112.183,91.125,94.788
-1.113,-0.111,3.311,89.355,60.120,83.801
-1.289,-0.133,3.405,60.425,31.372,61.768
-1.263,-0.152,3.347,27.222,8.362,32.104
-1.048,-0.145,3.156,-4.456,-10.681,1.404
-0.826,-0.160,2.903,-29.236,-28.992,-23.926
-0.592,-0.169,2.637,-46.631,-44.678,-43.640
-0.365,-0.188,2.363,-59.265,-54.626,-59.143
-0.186,-0.197,2.054,-69.519,-63.049,-68.970
-0.019,-0.188,1.783,-74.951,-71.106,-73.425
0.147,-0.134,1.535,-76.965,-79.468,-74.585
0.336,-0.122,1.349,-77.881,-91.370,-69.153
0.462,-0.018,1.188,-82.153,-117.554,-52.856
0.293,0.132,1.039,-85.999,-151.245,-27.344
0.138,0.133,1.013,-80.078,-163.635,-14.465
-0.002,0.141,0.880,-85.999,-159.607,-18.311
-0.060,0.150,0.659,-97.839,-147.034,-27.893
-0.007,0.124,0.436,-103.577,-131.409,-37.292
0.057,0.116,0.206,-105.896,-121.399,-42.603
0.119,0.128,-0.014,-104.675,-114.746,-43.030
0.170,0.141,-0.222,-98.755,-105.957,-41.016
0.218,0.154,-0.400,-89.111,-92.590,-37.781
0.251,0.173,-0.531,-76.416,-75.500,-33.203
0.250,0.181,-0.615,-61.523,-56.458,-26.855
0.220,0.164,-0.673,-46.448,-34.546,-19.653
0.171,0.114,-0.736,-33.386,-10.376,-13.245
0.123,0.072,-0.773,-22.339,16.235,-9.277
0.137,0.041,-0.818,-12.024,45.349,-8.118
0.167,0.020,-0.803,2.136,72.632,-5.981
0.190,0.002,-0.717,20.996,95.276,-1.648
0.229,0.010,-0.583,40.894,113.525,3.174
0.284,0.025,-0.424,61.646,125.183,8.789
0.330,0.040,-0.204,85.510,126.587,19.226
0.268,0.007,0.048,109.253,116.638,36.072
0.161,-0.037,0.327,125.244,104.126,52.795
0.098,-0.039,0.557,131.348,98.022,63.049
0.079,-0.081,0.738,135.254,99.670,67.932
0.067,-0.146,0.910,142.334,103.821,71.594
0.092,-0.212,1.082,154.968,106.567,76.965
0.105,-0.246,1.387,175.537,105.042,86.426
-0.023,-0.274,1.876,199.097,98.267,99.426
-0.264,-0.253,2.520,212.830,88.745,111.328
-0.596,-0.228,3.120,204.529,78.979,112.610
-0.923,-0.185,3.564,170.410,68.909,99.609
-1.192,-0.170,3.816,119.385,57.556,74.463
-1.239,-0.135,3.850,59.875,45.044,39.246
-1.108,-0.120,3.632,1.221,27.710,1.099
-0.869,-0.139,3.281,-45.044,4.761,-28.992
-0.626,-0.178,2.871,-76.843,-18.738,-48.218
-0.373,-0.212,2.455,-95.215,-38.208,-61.157
-0.120,-0.210,2.035,-104.797,-51.392,-69.885
0.058,-0.173,1.658,-104.797,-61.096,-72.205
0.237,-0.116,1.399,-96.558,-68.359,-68.726
0.346,-0.060,1.224,-85.938,-77.515,-59.204
0.622,0.052,1.250,-80.139,-95.642,-44.983
0.389,0.254,1.118,-86.487,-131.531,-14.587
0.219,0.232,1.235,-81.238,-148.926,5.493
0.005,0.235,1.183,-91.614,-146.973,1.099
-0.097,0.186,1.001,-113.586,-133.972,-11.230
-0.064,0.135,0.743,-129.395,-116.028,-23.560
-0.027,0.100,0.498,-138.306,-103.577,-32.593
-0.038,0.070,0.293,-139.526,-98.389,-36.316
-0.052,0.024,0.087,-134.888,-97.717,-35.706
-0.023,-0.010,-0.136,-126.831,-98.633,-32.654
0.023,-0.009,-0.332,-115.479,-98.755,-29.236
0.081,-0.002,-0.527,-101.563,-94.177,-26.733
0.161,0.006,-0.697,-85.022,-82.275,-24.536
0.244,0.029,-0.845,-66.711,-64.819,-20.447
0.301,0.041,-0.944,-45.837,-43.762,-13.489
0.312,0.015,-1.020,-23.071,-19.470,-4.578
0.279,-0.025,-1.017,0.549,7.996,5.066
0.214,-0.061,-0.913,22.827,40.161,13.489
0.215,-0.042,-0.757,42.053,75.562,17.029
0.272,0.014,-0.572,60.181,105.835,18.250
0.287,0.019,-0.340,81.177,122.009,23.682
0.229,0.006,-0.062,101.929,123.108,36.316
0.132,-0.024,0.218,117.493,117.676,50.598
0.042,-0.024,0.500,125.977,112.610,59.753
0.011,-0.028,0.760,131.226,112.427,64.026
0.012,-0.016,1.064,138.550,114.136,66.650
-0.033,0.021,1.469,147.644,112.488,70.313
-0.140,0.031,1.932,154.785,107.605,74.890
-0.370,0.048,2.450,153.687,99.060,78.613
-0.657,0.057,2.940,140.259,89.050,75.867
-0.881,0.055,3.279,112.488,78.918,63.721
-0.981,0.049,3.412,74.524,64.880,43.579
-0.964,0.023,3.337,33.691,44.556,21.545
-0.871,-0.001,3.146,0.610,19.348,2.869
-0.789,-0.051,2.923,-21.240,-7.751,-10.254
-0.689,-0.097,2.682,-35.400,-32.349,-21.729
-0.598,-0.135,2.445,-45.532,-51.697,-32.593
-0.451,-0.144,2.195,-52.490,-64.819,-44.312
-0.277,-0.145,1.931,-57.556,-73.853,-53.589
-0.108,-0.138,1.685,-59.570,-82.092,-58.655
0.025,-0.098,1.479,-60.303,-91.370,-59.265
0.140,-0.030,1.316,-61.768,-101.379,-55.420
0.196,0.039,1.191,-64.880,-115.234,-46.143
0.126,0.099,1.101,-69.885,-130.493,-35.400
0.026,0.123,1.016,-78.186,-141.357,-28.687
-0.050,0.134,0.895,-89.905,-144.836,-27.893
-0.097,0.121,0.707,-101.624,-143.738,-30.762
-0.082,0.092,0.470,-108.826,-139.587,-35.706
0.015,0.068,0.220,-110.596,-133.423,-40.771
0.089,0.100,-0.081,-108.337,-127.930,-44.067
0.196,0.122,-0.318,-97.656,-116.028,-44.922
0.303,0.160,-0.463,-80.872,-100.891,-42.419
0.346,0.218,-0.568,-64.636,-88.684,-35.522
0.330,0.268,-0.641,-46.753,-75.562,-23.010
0.289,0.260,-0.682,-25.391,-56.641,-9.338
0.232,0.218,-0.708,-6.592,-32.837,0.366
0.168,0.180,-0.697,7.263,-6.470,7.080
0.130,0.153,-0.656,17.578,22.400,11.047
0.125,0.152,-0.587,25.757,54.138,12.634
0.157,0.158,-0.494,34.607,84.045,14.099
0.170,0.159,-0.378,45.837,107.361,18.066
0.162,0.158,-0.178,60.181,122.864,23.804
0.120,0.154,0.067,72.571,131.165,30.029
0.058,0.130,0.302,79.346,132.874,36.499
-0.005,0.096,0.482,81.604,130.249,42.603
-0.059,0.056,0.640,83.862,126.892,47.913
-0.084,0.023,0.813,88.989,125.916,52.002
-0.051,0.015,1.034,97.656,126.343,54.077
-0.061,0.023,1.316,110.229,122.681,56.946
-0.182,-0.007,1.698,126.404,110.474,63.843
-0.427,-0.039,2.154,139.038,93.384,71.777
-0.672,-0.048,2.608,138.489,78.674,73.303
-0.862,-0.034,2.967,121.887,67.627,65.308
-0.965,-0.023,3.166,93.140,56.885,47.974
-0.974,-0.036,3.184,57.373,42.542,27.466
-0.912,-0.045,3.066,22.888,22.888,9.033
-0.841,-0.056,2.893,-4.272,-1.282,-5.188
-0.774,-0.092,2.682,-23.682,-25.696,-17.700
-0.711,-0.106,2.471,-38.574,-45.288,-31.494
-0.562,-0.121,2.260,-49.011,-57.495,-47.119
-0.393,-0.118,2.015,-58.044,-67.688,-59.326
-0.221,-0.098,1.761,-65.430,-75.684,-67.932
-0.027,-0.058,1.543,-70.679,-79.407,-73.730
0.159,0.003,1.345,-76.111,-83.740,-72.998
0.287,0.076,1.178,-82.336,-93.933,-62.744
0.276,0.172,1.059,-88.928,-109.436,-47.363
0.196,0.216,0.988,-94.971,-123.047,-34.790
0.056,0.245,0.864,-103.394,-129.944,-26.917
-0.039,0.246,0.724,-111.328,-127.197,-26.306
-0.048,0.221,0.574,-117.432,-116.577,-31.433
-0.029,0.197,0.396,-123.230,-106.628,-37.109
0.000,0.222,0.151,-127.258,-97.778,-40.100
0.101,0.213,-0.038,-122.131,-82.336,-40.527
0.201,0.202,-0.198,-115.112,-66.833,-39.490
0.260,0.208,-0.384,-111.877,-56.030,-36.621
0.271,0.229,-0.602,-107.056,-45.715,-29.358
0.250,0.221,-0.777,-93.140,-30.457,-18.555
0.186,0.173,-0.879,-71.655,-8.423,-8.179
0.135,0.115,-0.896,-48.950,20.020,-1.282
0.113,0.096,-0.877,-29.297,51.941,2.930
0.156,0.088,-0.844,-7.385,79.163,6.897
0.137,0.055,-0.724,20.203,94.727,14.099
0.080,0.014,-0.550,49.561,100.342,23.132
0.029,0.009,-0.341,73.730,101.746,31.250
-0.005,0.036,-0.069,93.750,102.234,37.048
-0.038,0.032,0.203,107.605,103.699,40.588
-0.036,0.033,0.430,111.023,107.300,41.687
0.039,0.047,0.570,108.521,114.075,40.405
0.104,0.048,0.721,110.718,119.385,41.138
0.112,0.029,0.940,124.084,119.690,46.570
0.090,0.022,1.270,146.240,113.220,57.922
-0.082,0.058,1.807,172.607,97.656,73.364
-0.424,0.089,2.504,193.542,78.369,85.571
-0.782,0.128,3.154,190.674,65.247,86.182
-0.990,0.195,3.575,157.715,57.983,71.838
-1.046,0.247,3.765,106.567,50.232,46.204
-0.979,0.243,3.703,49.622,35.706,18.311
-0.864,0.223,3.444,-3.479,12.329,-4.578
-0.796,0.142,3.116,-42.725,-15.076,-20.508
-0.673,0.057,2.758,-69.214,-38.452,-35.034
-0.475,0.013,2.407,-86.304,-53.894,-48.340
-0.232,-0.006,2.055,-95.154,-62.134,-58.044
-0.017,0.010,1.719,-99.243,-68.542,-62.012
0.132,0.047,1.426,-99.121,-75.745,-59.875
0.227,0.110,1.214,-94.971,-83.862,-51.514
0.308,0.148,1.074,-89.661,-93.018,-38.025
0.340,0.193,1.011,-89.417,-107.117,-22.705
0.208,0.275,0.893,-97.778,-124.878,-6.287
0.060,0.286,0.798,-104.187,-129.456,2.747
-0.021,0.240,0.687,-112.244,-119.995,-0.366
-0.068,0.196,0.488,-125.916,-107.910,-7.874
-0.061,0.152,0.185,-138.000,-98.083,-13.855
-0.025,0.102,-0.133,-139.648,-90.393,-17.456
0.026,0.043,-0.428,-130.920,-84.717,-18.738
0.086,0.014,-0.735,-116.150,-78.552,-17.639
0.181,-0.000,-0.993,-94.543,-66.772,-15.564
0.262,0.002,-1.154,-66.833,-50.659,-11.230
0.294,-0.009,-1.254,-36.377,-32.410,-3.479
0.273,-0.051,-1.290,-6.287,-11.230,5.920
0.184,-0.118,-1.253,22.095,15.015,14.099
0.135,-0.162,-1.127,48.035,47.729,17.151
0.173,-0.129,-0.908,71.228,82.214,17.151
0.214,-0.060,-0.570,94.727,108.765,18.311
0.192,-0.048,-0.227,115.479,120.422,23.437
0.091,-0.064,0.101,127.808,120.728,31.738
0.021,-0.067,0.422,131.042,120.483,37.231
0.008,-0.047,0.649,128.479,122.437,37.720
0.012,-0.037,0.871,129.761,124.146,39.612
0.050,-0.031,1.162,139.282,123.291,44.067
0.031,0.045,1.607,154.053,118.042,51.697
-0.120,0.151,2.254,169.373,107.666,62.317
-0.394,0.222,2.953,173.706,95.154,69.580
-0.689,0.281,3.521,154.724,80.566,66.772
-0.962,0.327,3.861,114.624,62.073,53.223
-1.089,0.348,3.960,62.622,42.664,30.090
-1.050,0.325,3.822,9.766,23.010,3.662
-0.880,0.280,3.481,-35.034,1.465,-19.836
-0.681,0.225,3.105,-66.589,-22.644,-37.537
-0.468,0.177,2.754,-84.595,-45.715,-48.218
-0.324,0.124,2.373,-95.093,-64.148,-53.711
-0.158,0.104,2.001,-100.830,-73.853,-59.937
0.002,0.083,1.674,-102.661,-78.552,-62.500
0.095,0.104,1.390,-101.318,-84.473,-62.012
0.189,0.120,1.170,-98.267,-91.064,-56.763
0.241,0.164,0.991,-95.520,-100.464,-47.058
0.241,0.186,0.882,-94.666,-113.586,-34.058
0.092,0.220,0.767,-98.999,-128.113,-21.301
-0.004,0.185,0.674,-106.506,-134.766,-15.808
-0.134,0.178,0.417,-118.835,-135.559,-16.602
-0.104,0.091,0.169,-126.221,-127.502,-23.315
-0.043,0.051,-0.179,-131.165,-118.530,-31.982
0.075,-0.002,-0.497,-129.700,-112.061,-35.706
0.189,0.001,-0.815,-118.286,-107.849,-34.668
0.244,0.020,-1.087,-97.595,-101.624,-29.114
0.281,0.018,-1.270,-65.369,-84.106,-20.691
0.320,0.001,-1.360,-28.748,-56.519,-12.329
0.300,-0.029,-1.351,6.409,-27.649,-3.235
0.216,-0.096,-1.295,36.804,-0.793,7.080
0.141,-0.126,-1.140,61.157,28.687,13.794
0.123,-0.093,-0.941,79.224,62.866,13.306
0.215,-0.076,-0.728,93.628,96.069,8.850
0.262,-0.033,-0.470,107.300,115.295,9.949
0.247,0.010,-0.190,118.530,121.094,16.968
0.225,0.013,0.093,125.977,123.840,25.024
0.220,0.029,0.338,126.892,127.258,30.945
0.266,0.062,0.547,125.549,133.118,35.095
0.327,0.085,0.771,129.944,138.123,40.222
0.350,0.115,1.103,142.761,136.841,49.500
0.288,0.159,1.602,160.522,128.357,64.209
0.068,0.220,2.220,174.927,114.502,81.909
-0.303,0.259,2.854,177.429,98.511,95.703
-0.745,0.244,3.398,162.781,84.534,98.816
-1.114,0.230,3.729,128.601,73.425,85.571
-1.267,0.210,3.826,82.520,62.683,57.129
-1.171,0.226,3.740,35.889,47.852,23.621
-0.963,0.225,3.562,-0.854,24.719,-2.441
-0.798,0.193,3.329,-27.649,-5.127,-16.907
-0.661,0.145,3.043,-49.500,-34.058,-26.001
-0.495,0.102,2.729,-67.627,-55.176,-35.156
-0.414,0.071,2.378,-81.299,-67.871,-44.006
-0.237,0.049,2.044,-90.088,-69.885,-56.824
-0.067,0.002,1.677,-97.717,-68.542,-65.857
0.106,0.026,1.345,-103.210,-71.960,-69.641
0.273,0.081,1.062,-106.323,-78.369,-65.674
0.423,0.125,0.850,-107.483,-88.806,-53.528
0.477,0.180,0.694,-112.183,-106.567,-35.706
0.334,0.240,0.492,-120.667,-126.099,-16.174
0.126,0.237,0.305,-122.925,-129.944,-4.822
0.031,0.159,0.088,-122.253,-116.150,-6.836
0.038,0.112,-0.182,-123.413,-98.694,-14.587
0.088,0.110,-0.476,-120.483,-86.060,-19.470
0.152,0.109,-0.672,-105.713,-76.233,-18.433
0.175,0.138,-0.819,-83.191,-68.237,-13.245
0.190,0.150,-0.908,-56.458,-55.481,-6.409
0.223,0.140,-0.913,-28.198,-35.522,-0.305
0.234,0.120,-0.897,-6.042,-12.634,5.005
0.234,0.114,-0.837,9.521,11.169,9.766
0.210,0.141,-0.722,22.766,37.659,13.672
0.216,0.148,-0.575,33.936,66.833,15.198
0.191,0.134,-0.420,41.748,95.093,16.418
0.225,0.175,-0.210,47.180,120.239,15.015
0.277,0.214,0.031,51.575,135.803,15.442
0.200,0.235,0.310,55.664,135.437,22.827
0.081,0.213,0.559,55.237,128.662,32.227
0.011,0.212,0.724,49.072,127.014,36.011
0.003,0.188,0.822,45.227,129.517,35.767
0.039,0.157,0.913,51.514,130.005,36.621
0.071,0.169,1.095,70.679,123.352,42.175
-0.005,0.183,1.474,101.868,107.178,52.185
-0.170,0.194,2.022,133.301,85.449,64.331
-0.420,0.270,2.653,150.696,64.453,73.669
-0.663,0.329,3.230,147.461,48.279,73.364
-0.860,0.362,3.593,119.995,33.936,62.073
-0.949,0.357,3.696,75.073,18.250,42.542
-0.893,0.322,3.566,24.048,2.197,18.982
-0.771,0.236,3.225,-21.790,-14.709,-2.441
-0.671,0.129,2.845,-54.993,-34.302,-19.775
-0.537,0.040,2.465,-75.195,-50.110,-36.133
-0.320,-0.028,2.067,-86.853,-60.120,-49.500
-0.091,-0.058,1.689,-91.675,-70.313,-57.251
0.072,-0.035,1.356,-90.454,-82.336,-58.411
0.200,0.006,1.112,-83.435,-94.299,-54.504
0.279,0.068,0.945,-74.890,-106.934,-45.349
0.290,0.142,0.848,-68.420,-121.887,-32.654
0.172,0.220,0.756,-64.941,-135.986,-19.958
0.041,0.222,0.699,-63.049,-142.578,-13.123
-0.062,0.249,0.587,-65.918,-142.883,-13.855
-0.105,0.245,0.475,-69.641,-139.832,-17.944
-0.094,0.235,0.329,-71.411,-136.780,-22.522
-0.053,0.248,0.146,-73.547,-134.399,-26.001
0.024,0.246,-0.047,-71.899,-127.380,-29.968
0.122,0.263,-0.255,-68.542,-115.417,-34.241
0.240,0.271,-0.474,-63.110,-98.938,-35.767
0.350,0.274,-0.703,-54.382,-78.613,-32.471
0.402,0.263,-0.915,-42.297,-57.007,-25.085
0.394,0.230,-1.071,-24.109,-34.058,-15.198
0.321,0.164,-1.137,0.488,-8.850,-4.089
0.204,0.078,-1.125,26.367,17.395,5.981
0.159,0.039,-1.036,52.795,45.471,12.329
0.156,0.015,-0.904,79.590,71.228,16.541
0.138,-0.027,-0.697,106.689,90.088,23.193
0.137,-0.019,-0.398,130.188,107.483,30.212
0.217,0.034,-0.101,146.118,125.488,32.898
0.287,0.036,0.114,157.654,136.658,36.133
0.290,0.010,0.348,170.654,135.742,46.692
0.261,-0.039,0.611,184.814,127.686,60.974
0.217,-0.046,0.897,196.228,118.652,74.463
0.158,-0.056,1.239,207.520,110.596,86.548
0.036,-0.074,1.706,217.346,102.173,98.267
-0.175,-0.068,2.266,217.224,94.421,106.812
-0.415,-0.012,2.793,200.256,89.294,106.750
-0.721,-0.018,3.203,167.664,84.106,97.412
-0.953,-0.036,3.445,125.305,75.867,78.003
-1.072,-0.051,3.506,77.148,61.523,51.270
-1.061,-0.078,3.436,31.494,41.260,23.315
-0.943,-0.096,3.234,-6.836,16.541,-0.854
-0.817,-0.138,2.991,-35.645,-9.521,-19.653
-0.661,-0.148,2.737,-57.007,-31.799,-35.950
-0.530,-0.136,2.455,-74.219,-47.058,-50.049
-0.395,-0.155,2.189,-85.754,-54.565,-63.477
-0.237,-0.169,1.876,-93.811,-54.810,-76.233
-0.079,-0.155,1.579,-98.145,-57.556,-82.153
0.021,-0.110,1.326,-98.877,-66.956,-81.543
0.131,-0.068,1.133,-95.337,-79.956,-73.914
0.184,-0.000,0.974,-92.468,-98.328,-60.425
0.152,0.063,0.844,-91.064,-118.164,-45.898
0.084,0.109,0.727,-90.820,-131.592,-35.645
0.063,0.126,0.594,-91.919,-136.230,-31.738
0.049,0.158,0.404,-94.116,-136.841,-30.701
0.065,0.166,0.193,-92.896,-131.958,-31.494
0.147,0.177,-0.011,-88.562,-122.070,-34.241
0.186,0.226,-0.281,-83.862,-109.375,-35.767
0.285,0.241,-0.494,-71.106,-89.050,-34.607
0.383,0.240,-0.625,-52.429,-66.345,-29.419
0.401,0.241,-0.731,-34.546,-48.157,-20.447
0.330,0.222,-0.819,-16.541,-29.358,-8.118
0.280,0.197,-0.825,4.456,-2.136,2.502
0.273,0.172,-0.794,25.391,30.945,8.667
0.280,0.130,-0.755,45.776,61.951,13.062
0.252,0.077,-0.659,66.650,86.548,19.348
0.240,0.049,-0.486,86.243,107.910,25.391
0.281,0.093,-0.233,101.929,127.686,27.893
0.319,0.107,-0.018,113.953,140.869,30.823
0.265,0.083,0.165,123.047,143.677,38.635
0.201,0.041,0.385,128.784,144.348,45.959
0.162,-0.019,0.554,125.854,150.024,47.363
0.171,-0.082,0.657,115.906,158.630,45.959
0.319,-0.069,0.749,109.619,166.931,44.067
0.482,-0.023,0.981,118.713,163.879,49.683
0.467,-0.069,1.450,142.517,139.709,69.336
0.235,-0.093,2.054,161.133,99.854,95.764
-0.203,-0.107,2.640,160.706,58.044,119.202
-0.731,-0.133,3.190,140.503,33.386,126.831
